# timestamp wx wy wz ax ay az
1563958781960708608 -0.0006358010577970 0.0000947763983277 0.0017933425260700 0.0002585841575640 0.0000743180207792 0.0005268945824350
1563958781975156480 -0.0006181159405970 -0.0000072373873081 0.0017994649242600 0.0033870434854200 0.0001079156645570 0.0005934465443720
1563958781990854400 -0.0007629411993550 -0.0001454620942240 0.0018600308103500 0.0013607441214800 -0.0006393924704750 0.0004009231342930
1563958782007188736 -0.0008608493953940 -0.0002532858343330 0.0018904361641000 0.0017411562148500 -0.0011749566765500 -0.0003995868610220
1563958782022805760 -0.0008605242474000 -0.0001365702919430 0.0019796544220300 0.0026933914050500 -0.0031194416806100 -0.0008278983295900
1563958782039078912 -0.0010391006944700 -0.0001859532785600 0.0019522253423900 0.0024801385588900 -0.0016976149054200 -0.0000359090918209
1563958782054901504 -0.0011088098399300 -0.0001425697410010 0.0019595692865600 0.0006375827360900 -0.0015865028835800 -0.0019880447071000
1563958782071093760 -0.0011717667803200 0.0000024046171347 0.0018396204104600 0.0019202644471100 -0.0020539844408600 0.0002298914769200
1563958782086829312 -0.0011503575369700 -0.0000624200401944 0.0017785138916200 -0.0001715047110340 0.0006892689270900 0.0000540178007213
1563958782102784000 -0.0012057430576500 -0.0000606101384619 0.0017942788545000 0.0008785986574370 -0.0000673137546983 -0.0005734656006100
1563958782118959360 -0.0011371778091400 -0.0001039859780580 0.0016745646717000 0.0007283566519620 -0.0001087820273820 -0.0014326041564300
1563958782135430656 -0.0011407834244900 -0.0001473513548260 0.0015140061732400 0.0013476887252200 -0.0010820919415000 -0.0005915665533390
1563958782151298048 -0.0012028660858000 -0.0001327168429270 0.0013425493380100 0.0003502928302620 0.0000227233213081 0.0008365534595210
1563958782168586752 -0.0011447776341800 -0.0000569935436943 0.0011429470032500 0.0020953614730400 -0.0021227581892200 0.0002816277556120
1563958782183170304 -0.0011222972534600 -0.0000879086146597 0.0009796051308510 0.0052148448303300 -0.0034301150590200 0.0000986114901025
1563958782198889472 -0.0011529957409900 0.0000569342191739 0.0008509426843370 0.0039510182105000 -0.0026977432426100 0.0007214981596920
1563958782215220224 -0.0011552381329200 0.0002752784348560 0.0006740426761100 0.0038680292200300 -0.0021557766012800 0.0001554438786120
1563958782231120896 -0.0010984956752500 0.0004105685511600 0.0004849133256360 0.0035593949724000 -0.0026468001306100 0.0017615739489000
1563958782248760320 -0.0010135177290100 0.0005648598889820 0.0002037066587950 0.0034856719430500 -0.0016732726944600 0.0018526625353800
1563958782262955520 -0.0009077467839230 0.0006415051757360 0.0001094449471570 0.0000505865173182 0.0001833597489170 0.0009824665030460
1563958782278933248 -0.0007279420387930 0.0007670186460020 -0.0000096411758932 0.0014277665177400 -0.0002889800816770 -0.0010221137199600
1563958782300034816 -0.0008169637294490 0.0007905460079200 -0.0002650591777640 0.0015543907648000 0.0004739697906190 -0.0012782677076800
1563958782312400384 -0.0007524721440860 0.0008813974563960 -0.0004690794739870 0.0002336072648180 0.0015676548937300 0.0001906763645820
1563958782328243968 -0.0005905788857490 0.0008278106688520 -0.0007035795133560 0.0023891392629600 0.0021289235446600 -0.0005990670179020
1563958782343274752 -0.0005830942536700 0.0008089742623270 -0.0010759355500300 0.0017468923470000 0.0011501736007600 -0.0000173443404492
1563958782359614976 -0.0005222337204030 0.0006569448742080 -0.0012491196394000 0.0000539187894901 0.0010984664550100 -0.0002147116319970
1563958782375230464 -0.0003355456574350 0.0005419973167590 -0.0014543419238200 0.0009818280814220 0.0017512231133900 -0.0006856188992970
1563958782392571648 -0.0003881893644580 0.0004911426221950 -0.0017269890522600 0.0003939089656340 0.0020059626549500 -0.0000794177176431
1563958782411120384 -0.0003864538448400 0.0004104628460480 -0.0018414729274800 -0.0013020673068200 0.0033684740774300 0.0005265002837400
1563958782423007488 -0.0002593187091410 0.0003664253163150 -0.0020439652726100 -0.0025630581658300 0.0030554246623100 0.0015802549896800
1563958782439230208 -0.0001174119315690 0.0002207117941000 -0.0022286199964600 -0.0000967637461144 0.0024172780104000 0.0009939972078430
1563958782455161344 -0.0000800022171461 0.0001380268222420 -0.0023614501114900 -0.0025366211775700 0.0028142337687300 -0.0006830876227470
1563958782471122432 0.0000454655018984 0.0000577935606998 -0.0025415695272400 -0.0019418009324000 0.0006045378395360 0.0000833579033497
1563958782486785536 0.0001730567310010 0.0001097722852140 -0.0026840728242000 -0.0006962526240390 -0.0007990684825930 -0.0003513751435090
1563958782502788352 0.0002080717968060 0.0001408109528710 -0.0027248100377600 0.0000697479408700 -0.0000407531078963 0.0002390816516710
1563958782519142912 0.0004052324511580 0.0001064497191690 -0.0028245411813300 -0.0001282636221730 0.0003123712376690 0.0007211736519820
1563958782536228096 0.0006014791433700 0.0000039505016502 -0.0029032877646400 0.0012307174038100 0.0012433273950600 0.0007819774327800
1563958782559024128 0.0006999784382060 -0.0000350911905116 -0.0029173160437500 0.0005070000770500 -0.0004122261889280 -0.0004839698667640
1563958782567286272 0.0007441575289700 -0.0000470031409350 -0.0029645618051300 0.0013908914988900 -0.0009089215891440 0.0006971028633420
1563958782582779136 0.0009641298092900 -0.0001306764752370 -0.0029312060214600 0.0008510909974580 -0.0018326971912800 -0.0012665463145800
1563958782599679488 0.0010581741808000 -0.0002938356483360 -0.0030463535804300 0.0033483135048300 -0.0006663700332870 -0.0005083931609990
1563958782616979712 0.0010396076832000 -0.0004421268531590 -0.0030994587577900 -0.0005473567871380 0.0010726753389500 -0.0013123472454000
1563958782632024320 0.0012895455583900 -0.0005485500441860 -0.0032626565080100 0.0008053898345680 -0.0000364464394806 0.0008228637743740
1563958782646936064 0.0017045726999600 -0.0005915451911280 -0.0034802441950900 -0.0018196940654900 0.0020018557552200 0.0023074608761800
1563958782663088128 0.0021140053868300 -0.0004170739848630 -0.0035668981727200 -0.0029158105608100 0.0028450908139300 0.0055200541392000
1563958782678934528 0.0028112397994800 -0.0000975642760750 -0.0035518624354200 -0.0020855215843800 0.0043399306014200 0.0053839795291400
1563958782695181056 0.0038883669767500 0.0003310642205180 -0.0034920659381900 -0.0002493673237040 0.0067152325063900 0.0027578067965800
1563958782712296704 0.0051593501120800 0.0005884065176360 -0.0032930732704700 -0.0061544571071900 0.0088613508269200 0.0021945566404600
1563958782727238400 0.0069616106338800 0.0008930852054620 -0.0033045245800200 -0.0075223930180100 0.0114132752642000 0.0033666263334500
1563958782743272192 0.0093194656074000 0.0012377703096700 -0.0033742536325000 -0.0073148147203000 0.0120127974078000 0.0020453631877900
1563958782759444224 0.0115787126124000 0.0015607909299400 -0.0034338652622000 -0.0082535520196000 0.0117172244936000 0.0034942748025100
1563958782775319040 0.0143200745806000 0.0019845839124200 -0.0035211213398700 -0.0078338962048300 0.0145521955565000 0.0020272533875000
1563958782791803904 0.0172818470746000 0.0022102375514800 -0.0036655974108700 -0.0066596502438200 0.0143666611984000 0.0035555576905600
1563958782809414400 0.0203426051885000 0.0024114188272500 -0.0038056012708700 -0.0118717541918000 0.0143294669688000 0.0048422794789100
1563958782823809536 0.0235521402210000 0.0025499614421300 -0.0040240632370100 -0.0088051585480600 0.0146906077862000 0.0034544870723000
1563958782839735040 0.0269413907081000 0.0025434994604400 -0.0042724073864500 -0.0100046060979000 0.0151703320444000 0.0043346080929000
1563958782854864384 0.0300058592111000 0.0024297742638700 -0.0044557293877000 -0.0082873990759300 0.0141301238909000 0.0034254835918500
1563958782871718656 0.0333598144352000 0.0023053644690700 -0.0046467124484500 -0.0104544665664000 0.0139408800751000 0.0039245593361600
1563958782886821120 0.0365814641118000 0.0021804284770000 -0.0047032097354500 -0.0092510422691700 0.0135731352493000 0.0044976621866200
1563958782903223808 0.0397458337247000 0.0020350904669600 -0.0048734163865400 -0.0109870331362000 0.0132461506873000 0.0046529672108600
1563958782919094016 0.0428270176053000 0.0019135595066500 -0.0049665500409900 -0.0072063850238900 0.0127851767465000 0.0052725248970100
1563958782934909952 0.0459383204579000 0.0016787195345400 -0.0049065160565100 -0.0093248905614000 0.0114335957915000 0.0038381717167800
1563958782952001280 0.0487832538784000 0.0014437555801100 -0.0048531400971100 -0.0080696735531100 0.0080011039972300 0.0040048751980100
1563958782967394560 0.0514952875674000 0.0012972238473600 -0.0047848601825500 -0.0066940612159700 0.0091552902013100 0.0035068262368400
1563958782983180288 0.0541523396969000 0.0010531458538000 -0.0047782021574700 -0.0089447610080200 0.0087739601731300 0.0050821891054500
1563958782999363328 0.0565250106156000 0.0008485760190520 -0.0048473412171000 -0.0071032205596600 0.0074570393189800 0.0052697090432000
1563958783014900480 0.0589170865715000 0.0005407088319770 -0.0045877522788900 -0.0073471865616700 0.0078446315601500 0.0047358884476100
1563958783031626752 0.0610385574400000 0.0001615310466150 -0.0044967452995500 -0.0077298581600200 0.0073784119449600 0.0023617395199800
1563958783047346432 0.0631847307086000 -0.0000657722266624 -0.0043507586233300 -0.0059304940514300 0.0061573353596000 0.0017324362415800
1563958783062978048 0.0650795772672000 -0.0002720301563390 -0.0041864770464600 -0.0056771053932600 0.0066253449767800 0.0016043514479000
1563958783078868736 0.0668014287949000 -0.0006609763368030 -0.0040825782343700 -0.0047211395576600 0.0058950753882500 0.0018778132507600
1563958783094930432 0.0684349313378000 -0.0007863977225500 -0.0040030581876600 -0.0064557474106600 0.0068502300418900 0.0016535391332600
1563958783113032192 0.0699977502227000 -0.0009901437442750 -0.0039053962100300 -0.0044512809254200 0.0058366199955300 0.0020704818889500
1563958783126965760 0.0714436694980000 -0.0010329681681500 -0.0038693731185000 -0.0030919213313600 0.0060635898262300 0.0026531217154100
1563958783143935744 0.0728987529874000 -0.0010345776099700 -0.0037428811192500 -0.0047075985930900 0.0050728204660100 0.0017726647201900
1563958783160474368 0.0743710994720000 -0.0009493849938740 -0.0036829879973100 -0.0034830847289400 0.0051278211176400 0.0001263596059290
1563958783175143936 0.0756288990378000 -0.0010171420872200 -0.0036685715895100 -0.0006241783848960 0.0044976323843000 -0.0004925903631370
1563958783192947200 0.0767695903778000 -0.0010353247635100 -0.0035852787550500 -0.0032277018763100 0.0049695852212600 -0.0005965575692240
1563958783206845184 0.0780704393983000 -0.0010431050322900 -0.0035316098947100 -0.0035986318253000 0.0040382491424700 0.0004424742655830
1563958783224603136 0.0790925100446000 -0.0010193558409800 -0.0034504258073900 -0.0026573496870700 0.0040041175670900 0.0001506727421660
1563958783239388416 0.0801583826542000 -0.0008887747535480 -0.0034422185272000 -0.0021980174351500 0.0028123650699900 0.0006987574161030
1563958783255557376 0.0813330486417000 -0.0007489362033080 -0.0033769377041600 -0.0032401038333800 0.0030576137360200 0.0002377149648960
1563958783274004224 0.0825507640839000 -0.0006393234361890 -0.0033306062687200 -0.0013620893005300 0.0021705720573700 -0.0007326159975490
1563958783286898432 0.0836088135839000 -0.0004973840550520 -0.0032873316668000 0.0007025211816650 0.0007910862332210 -0.0008318377658720
1563958783304872192 0.0847314372659000 -0.0004787703801410 -0.0032616758253400 -0.0013816853752400 0.0013562574749800 -0.0002200072631240
1563958783321012992 0.0861044153571000 -0.0005025216378270 -0.0032582373824000 0.0013841791078400 0.0013050005072700 0.0003381200367580
1563958783335760896 0.0871584489942000 -0.0005843383260070 -0.0033200057223400 0.0009539733873680 0.0012756435899100 -0.0013451364357000
1563958783351175936 0.0883747711778000 -0.0004921534564350 -0.0033155502751500 -0.0007365900091830 0.0016379245789700 0.0008354570018130
1563958783368393216 0.0896462872624000 -0.0004076689074280 -0.0033072831574800 -0.0008148475317280 0.0004323525936340 0.0013195456704100
1563958783382945792 0.0908022373915000 -0.0002404511615170 -0.0031659558881100 -0.0012553443666500 0.0010613979538900 0.0001830098335630
1563958783399153664 0.0919727906585000 -0.0001047516561810 -0.0032011305447700 -0.0020828838460100 0.0016452893614800 0.0012202574871500
1563958783416005376 0.0932419151068000 -0.0000682925165165 -0.0031343661248700 -0.0028793849051000 0.0026410454884200 0.0015600572805900
1563958783431251456 0.0944346785545000 0.0000357291355613 -0.0030722094234100 -0.0034848446957800 0.0015766412252600 0.0010765620973000
1563958783447575808 0.0956308469176000 0.0001126100833060 -0.0029837524052700 -0.0028253844939200 0.0004269820055920 0.0022718941327200
1563958783462938368 0.0968792438507000 0.0001679015986160 -0.0029223719611800 -0.0013641043333300 0.0009409278864040 0.0007106248522180
1563958783480611072 0.0980441644788000 0.0002810401492750 -0.0027826577425000 -0.0012961243046400 0.0002791360311680 0.0017113297944900
1563958783495423232 0.0991985127330000 0.0003739715320990 -0.0026723232585900 -0.0026333900168500 -0.0003457122365940 0.0002362750965400
1563958783511371264 0.1003372743730000 0.0004982266691510 -0.0025243244599600 -0.0022240495309200 -0.0001090615842260 0.0002145145408580
1563958783528905728 0.1016747802500000 0.0005282217753120 -0.0022371369414000 -0.0020215993281500 -0.0008244529017250 -0.0004063089436390
1563958783542961408 0.1027458459140000 0.0005082175484860 -0.0020844957325600 -0.0015746073331700 -0.0007583275437360 0.0006261269445530
1563958783559615744 0.1040116027000000 0.0005394963664000 -0.0017560385167600 -0.0020673132967200 -0.0005539706908170 -0.0008053295896390
1563958783575066880 0.1053469553590000 0.0004165941791140 -0.0015488220378800 -0.0018348377198000 -0.0014944360591500 0.0003858795680570
1563958783591012608 0.1065957993270000 0.0003845229512080 -0.0013415376888600 -0.0020179897546800 0.0001874000590760 0.0001600113901080
1563958783607975168 0.1078901514410000 0.0004276226682120 -0.0010916989995200 -0.0001635251974220 -0.0012707402929700 0.0011386501137200
1563958783623043328 0.1092092618350000 0.0004560653469530 -0.0008079893887040 -0.0022228464949900 -0.0014550930354700 0.0010397918522400
1563958783640028416 0.1105745211240000 0.0003872180823240 -0.0003824205778070 -0.0004865299852100 -0.0039563723839800 0.0000484045885969
1563958783656320256 0.1118121743200000 0.0003867215127680 -0.0000531065415998 -0.0012444441672400 -0.0040656868368400 -0.0022024551872200
1563958783671051520 0.1132022067900000 0.0003684423281810 0.0003280751116110 -0.0003145580994900 -0.0052122808992900 -0.0007630126783620
1563958783688377088 0.1144985482100000 0.0004063736705580 0.0006718828226440 0.0002707765670490 -0.0063263871707000 -0.0023984168656200
1563958783702985472 0.1158301010730000 0.0004856562591160 0.0010822800686600 -0.0017904101405300 -0.0063538835384000 -0.0003731652977880
1563958783719276032 0.1170965284110000 0.0006126715452410 0.0014545883750500 -0.0040755826048600 -0.0043041319586300 -0.0001413214195050
1563958783735526912 0.1184347793460000 0.0008227861835620 0.0018543674377700 -0.0011349695269000 -0.0063126655295500 0.0002285989758090
1563958783751154944 0.1194829493760000 0.0009430364589210 0.0021413557697100 0.0001594592758920 -0.0054823867976700 -0.0003233299939890
1563958783769130496 0.1207068786030000 0.0010865072254100 0.0023217499256100 0.0028362884186200 -0.0065632918849600 -0.0007546928245570
1563958783784148992 0.1218337938190000 0.0012539111776300 0.0025136084295800 0.0005567371263170 -0.0046047782525400 -0.0010314238024900
1563958783798989056 0.1229185089470000 0.0012131590629000 0.0025911650154700 0.0011047577718300 -0.0042728846892700 -0.0014432251919100
1563958783815144192 0.1241502091290000 0.0013633329654100 0.0026250339578800 0.0000710806780262 -0.0020554142538500 -0.0018690024735400
1563958783831169024 0.1253393441440000 0.0013754630927000 0.0027123107574900 -0.0002542785368860 -0.0017200674628800 -0.0015604181680800
1563958783849618688 0.1267272531990000 0.0014915086794600 0.0027419105172200 -0.0039773182943500 -0.0006857796106490 0.0004321432497820
1563958783863200000 0.1278483718630000 0.0014647736679800 0.0026586186140800 -0.0010789671214300 -0.0007699295529160 0.0015872427029500
1563958783881929984 0.1291364580390000 0.0015500322915600 0.0026745144277800 0.0016274380032000 -0.0025793707463900 0.0014866406563700
1563958783895245568 0.1303535252810000 0.0017398893833200 0.0026488681323800 0.0017000747611700 -0.0018023842712900 0.0012943779584000
1563958783911340544 0.1315527111290000 0.0018887147307400 0.0025698989629700 0.0010927282273800 -0.0022925832308800 -0.0001420752087140
1563958783933615104 0.1328596323730000 0.0019543764647100 0.0024873814545600 0.0024825900327400 -0.0032689692452500 0.0004262985894460
1563958783943366912 0.1341458708050000 0.0019496983150000 0.0024424490984500 0.0027892661746600 -0.0010995798511400 0.0004597128427120
1563958783959681024 0.1352916210890000 0.0018904465250700 0.0023679826408600 0.0046235905028900 -0.0013878606259800 0.0000725312565919
1563958783977283328 0.1363859027620000 0.0018537461292000 0.0023560090921800 0.0030606181826400 -0.0017121169949000 -0.0001863782672440
1563958783991602432 0.1375979483130000 0.0019342037849100 0.0023722362238900 0.0044280439615200 -0.0040689832530900 -0.0016249243635700
1563958784007310336 0.1386547237630000 0.0019831110257700 0.0025249267928300 0.0026895436458300 -0.0024159157183000 -0.0017345406813500
1563958784022884352 0.1397926658390000 0.0020654390100400 0.0025761942379200 0.0036160924937600 -0.0039789793081600 -0.0009435540996490
1563958784039497472 0.1410525739190000 0.0021135651040800 0.0026336223818400 0.0047856075689200 -0.0022945336531800 -0.0023813545703900
1563958784055391488 0.1420745104550000 0.0020462851971400 0.0027429778128900 0.0069265356287400 -0.0043716779910000 -0.0013409402454300
1563958784071325184 0.1431760787960000 0.0020720546599500 0.0029372335411600 0.0055860416032400 -0.0042920326814100 -0.0008649676456120
1563958784087140608 0.1442743390800000 0.0021892117802100 0.0030448995530600 0.0072690816596200 -0.0050165737047800 -0.0020090388134100
1563958784102992896 0.1452231258150000 0.0022122291848100 0.0029837009497000 0.0072904108092200 -0.0013666527811400 -0.0030307569541000
1563958784118965248 0.1462744027380000 0.0021134128328400 0.0029666600748900 0.0050214054063000 0.0005449348827820 -0.0025097697507600
1563958784136516608 0.1473617702720000 0.0021334986668100 0.0027417591773000 0.0044098924845500 0.0014924991410200 -0.0019272204954200
1563958784150963968 0.1485290676360000 0.0020366075914400 0.0026467086281600 0.0050984686240600 0.0028629642911300 -0.0019291626522300
1563958784166939648 0.1496787071230000 0.0021284718532100 0.0025734980590600 0.0038568205200100 0.0042343907989600 -0.0001234424998980
1563958784183205888 0.1508686989550000 0.0022709001787000 0.0024326322600200 0.0028374306857600 0.0042204861529200 0.0001236735261050
1563958784198930176 0.1522208899260000 0.0023546225857000 0.0023203527089200 0.0030116615817000 0.0054786028340500 0.0002971631474790
1563958784217190144 0.1534951776270000 0.0024395664222500 0.0022324561141400 0.0046155005693400 0.0045634419657300 -0.0003465685003900
1563958784231341824 0.1548558622600000 0.0024377573281500 0.0021481448784500 0.0024758318904800 0.0041457093320800 -0.0001124858099500
1563958784247002880 0.1563888937230000 0.0024229791015400 0.0020123824942900 0.0046290098689500 0.0016742418520200 -0.0000273525365628
1563958784265449984 0.1578254103660000 0.0023829326964900 0.0018435246311100 0.0046924590133100 0.0005246629007160 0.0005342589574870
1563958784279158784 0.1592779606580000 0.0023524272255600 0.0016886310186200 0.0077934302389600 -0.0022524371743200 -0.0016866718651700
1563958784295854848 0.1607925146820000 0.0024068355560300 0.0015487584751100 0.0077358251437500 -0.0038267984055000 -0.0013703354634300
1563958784311125760 0.1622340828180000 0.0024159480817600 0.0014072927879200 0.0078045260161200 -0.0039481222629500 -0.0015853580553100
1563958784327021568 0.1638177633290000 0.0023786751553400 0.0013932960573600 0.0098646916449100 -0.0057955388911100 -0.0031802153680500
1563958784344278272 0.1654922664170000 0.0024777229409700 0.0013651453191400 0.0076024536974700 -0.0028164046816500 -0.0024145345669200
1563958784359529472 0.1670624166730000 0.0024803732521800 0.0014374962775000 0.0064717652276200 -0.0020809769630400 -0.0019039750332000
1563958784375285760 0.1683608889580000 0.0025478836614600 0.0014918642118600 0.0054754791781300 -0.0016133640892800 -0.0021300201769900
1563958784391108352 0.1700171679260000 0.0025544357486100 0.0015556742437200 0.0070901680737700 -0.0025537752080700 -0.0019396883435500
1563958784406958080 0.1713266223670000 0.0026157842949000 0.0015319195808800 0.0077657415531600 -0.0035889185965100 -0.0034438264556200
1563958784425301504 0.1727627217770000 0.0026006652042300 0.0015293007018000 0.0086007406935100 -0.0050688097253400 -0.0029770014807600
1563958784439205888 0.1741834729910000 0.0026983129791900 0.0014621188165600 0.0075540011748700 -0.0051742088981000 -0.0035491944290700
1563958784455670528 0.1756655573840000 0.0026434888131900 0.0013747697230400 0.0092067476362000 -0.0086769275367300 -0.0046076942235200
1563958784471369472 0.1769989728930000 0.0026033597532700 0.0014198300195900 0.0058710877783600 -0.0051335226744400 -0.0027747373096600
1563958784487079168 0.1783365756270000 0.0025514026638100 0.0013388135703300 0.0080076176673200 -0.0061278762295800 -0.0024685957469000
1563958784502965504 0.1797707229850000 0.0026271007955100 0.0012927853968000 0.0065999813377900 -0.0036259428598000 -0.0029036598280100
1563958784523940608 0.1810394674540000 0.0026276363059900 0.0011851511662800 0.0053306836634900 -0.0036529207136500 -0.0019651532638800
1563958784535888128 0.1819706261160000 0.0025740233250000 0.0011580504942700 0.0039897449314600 -0.0021571982651900 -0.0009244240936820
1563958784551771648 0.1827941685910000 0.0025930800475200 0.0010696836980100 0.0091328388080000 -0.0016701323911500 -0.0043444302864400
1563958784567346688 0.1832340806720000 0.0024121918249900 0.0011072083143500 0.0078768748790000 -0.0016590981977100 -0.0048118899576400
1563958784583163136 0.1835816949610000 0.0024229416158100 0.0010790352243900 0.0057958271354400 -0.0037205428816400 -0.0004861087945760
1563958784598933760 0.1837275922300000 0.0022905799560200 0.0010755931725700 0.0081264218315500 -0.0026358747854800 -0.0041055078618200
1563958784614989312 0.1834751516580000 0.0022435043938500 0.0011127976467800 0.0095309186726800 -0.0052709970623300 -0.0035227041225900
1563958784631202304 0.1830710917710000 0.0021901242435000 0.0011509776813900 0.0052236872725200 -0.0048046540468900 -0.0014420375227900
1563958784646781952 0.1823881864550000 0.0020949551835700 0.0012625275412600 0.0097876777872400 -0.0073821847327100 -0.0059133279137300
1563958784662890752 0.1816245019440000 0.0020374266896400 0.0013355753617400 0.0097321933135400 -0.0054655736312300 -0.0056020375341200
1563958784678974208 0.1806534677740000 0.0019844537600900 0.0013653006171800 0.0097684431821100 -0.0067755556665400 -0.0025264571886500
1563958784695398144 0.1796521693470000 0.0019354427931800 0.0013681639684400 0.0102332299575000 -0.0049267280846800 -0.0033167437650300
1563958784712981760 0.1785850077870000 0.0018875345122100 0.0014515565708300 0.0100111458451000 -0.0046078693121700 -0.0031832302920500
1563958784727251456 0.1776195019480000 0.0017481251852600 0.0015498569700900 0.0074018361046900 -0.0034007914364300 -0.0010791720124000
1563958784742866432 0.1764463037250000 0.0017297357553600 0.0015345999272500 0.0088337417691900 -0.0055410633795000 -0.0015533561818300
1563958784758919424 0.1754631549120000 0.0017086463049100 0.0016331977676600 0.0086634093895600 -0.0042806486599100 -0.0031111927237400
1563958784774836992 0.1743948012590000 0.0017106083687400 0.0017409914871700 0.0087658595293800 -0.0087940543890000 -0.0050333896651900
1563958784791279360 0.1734056621790000 0.0017268882365900 0.0016806916100900 0.0083599500358100 -0.0083870943635700 -0.0058790454641000
1563958784806764544 0.1725021153690000 0.0016687698662300 0.0016388648655300 0.0089136082679000 -0.0094146803021400 -0.0048474394716300
1563958784822755840 0.1716179102660000 0.0016230178298400 0.0016203725244800 0.0082596028223600 -0.0058160875923900 -0.0030357316136400
1563958784842579200 0.1707723289730000 0.0015456099063200 0.0016114293830500 0.0069302483461800 -0.0065046260133400 -0.0038032031152400
1563958784854774016 0.1699366122480000 0.0015959298471000 0.0015371076297000 0.0051587778143600 -0.0052217314951100 -0.0039524142630400
1563958784871305728 0.1692825704810000 0.0016291901702100 0.0014461147366100 0.0047766240313600 -0.0065562562085700 -0.0023352140560700
1563958784887374592 0.1684660762550000 0.0016400265740200 0.0014259592862800 0.0075090327300100 -0.0064538773149300 -0.0023498954251400
1563958784903226112 0.1678772717710000 0.0016787390923100 0.0014449456939500 0.0081335697323100 -0.0065001160837700 -0.0025351508520500
1563958784919046400 0.1674647480250000 0.0016355525003700 0.0014405451947800 0.0062266928143800 -0.0051437686197500 -0.0013444935903000
1563958784935017728 0.1669093519450000 0.0016564518446100 0.0014234489062800 0.0071083675138700 -0.0080295642837900 -0.0027386648580400
1563958784951165696 0.1665137857200000 0.0017596142133700 0.0013135436456700 0.0073772957548500 -0.0072840424254500 -0.0023325975053000
1563958784966928896 0.1661401391030000 0.0018526396015700 0.0012657732004300 0.0074822874739800 -0.0094583230093100 -0.0036888688337100
1563958784985802752 0.1658465415240000 0.0017479521920900 0.0010949290590400 0.0059224986471200 -0.0077978796325600 -0.0031310776248600
1563958784998769920 0.1655373722310000 0.0016600519884400 0.0009586027590560 0.0037028547376400 -0.0085164513438900 -0.0031704187858800
1563958785015442688 0.1653197258710000 0.0017001403030000 0.0008915999787860 0.0045352447778000 -0.0070066465996200 -0.0031709994655100
1563958785031118592 0.1650326401000000 0.0017425835831100 0.0008272628183480 0.0042250636033700 -0.0068634995259300 -0.0031095077283700
1563958785047223040 0.1646179854870000 0.0018917639972600 0.0007818941958250 0.0055581009946800 -0.0070267189294100 -0.0034847781062100
1563958785065480192 0.1644182801250000 0.0019827117212100 0.0008048635208980 0.0053716157563000 -0.0083097647875500 -0.0034335665404800
1563958785079102464 0.1642537564040000 0.0020742649212500 0.0008502452983520 0.0033179286401700 -0.0071667721495000 -0.0025366672780400
1563958785096457984 0.1641545742750000 0.0020828347187500 0.0008965681190600 0.0021866282913800 -0.0072110095061400 -0.0026327038649500
1563958785111614464 0.1641701906920000 0.0024040031712500 0.0009296519565400 0.0028999955393400 -0.0052877836860700 -0.0021981399040700
1563958785127765504 0.1641807705160000 0.0026301292236900 0.0008894020575100 0.0022554758470500 -0.0055616511963300 -0.0022505689412400
1563958785144317696 0.1643038243060000 0.0027250547427700 0.0008613151730970 0.0027374881319700 -0.0040058079175700 -0.0009513222612440
1563958785160921600 0.1644069254400000 0.0028577188495500 0.0008909117314030 0.0020461478270600 -0.0043515958823300 -0.0024196619633600
1563958785174965504 0.1645980477330000 0.0028733697254200 0.0008771212887950 0.0010935943573700 -0.0033852385822700 -0.0018325923010700
1563958785191774464 0.1646670699120000 0.0031480505131200 0.0008998631383290 0.0007732865633440 -0.0039716088213000 -0.0009622417856010
1563958785206733056 0.1647848933940000 0.0034221089445100 0.0008642307366240 0.0008282844210040 -0.0021132801193700 0.0003137823077850
1563958785223311616 0.1648740768430000 0.0037129879929100 0.0009407700854350 -0.0020672339014700 -0.0022407204378400 0.0032566811423700
1563958785238983424 0.1648893654350000 0.0040105334483100 0.0010057487525000 0.0022250735200900 -0.0020957523956900 0.0023426376283200
1563958785258036992 0.1648641973730000 0.0040126410313000 0.0012026896001800 0.0012282287934800 -0.0024481103755500 0.0010810963576700
1563958785271104256 0.1648351848130000 0.0040603051893400 0.0012201104546000 0.0019854919519300 -0.0031737894751100 0.0035688753705500
1563958785286973696 0.1648473739620000 0.0040246946737200 0.0013642407720900 0.0018769833259300 -0.0038740048185000 0.0007084950339050
1563958785303163392 0.1647523045540000 0.0040702400729100 0.0014911264879600 0.0023178278934200 -0.0034306654706600 0.0022710238117700
1563958785318836224 0.1648361980920000 0.0041099209338400 0.0015860992716600 0.0006359023973350 -0.0043244697153600 0.0027296678163100
1563958785335123200 0.1649539768700000 0.0040876031853300 0.0017717974260400 0.0028761266730700 -0.0046562659554200 0.0005787630798300
1563958785351250176 0.1649511605500000 0.0040458380244700 0.0017388361739000 0.0028945701196800 -0.0039395564235700 0.0004385126521810
1563958785367924992 0.1651249974970000 0.0039793108589900 0.0016442581545600 0.0030639502219900 -0.0024938848801000 -0.0005724561633540
1563958785383192320 0.1652233898640000 0.0041248621419100 0.0015822718851300 0.0020150211639700 -0.0043240692466500 -0.0008984515443440
1563958785399114240 0.1652269363400000 0.0040656863711800 0.0014567640610000 0.0021030348725600 -0.0043929526582400 0.0002631487732290
1563958785416858880 0.1652995944020000 0.0039736316539300 0.0013337604468700 0.0013566219713500 -0.0029548888560400 0.0006588270189240
1563958785430911232 0.1653937995430000 0.0037086240481600 0.0013008116511600 -0.0001256448158530 -0.0022351469378900 0.0022223908454200
1563958785447809024 0.1653950214390000 0.0035033386666300 0.0011836095945900 -0.0007676418172200 -0.0012485154438800 0.0003233797906430
1563958785462901248 0.1654840409760000 0.0032407513354000 0.0012603768846000 0.0018977527506600 -0.0051565691828700 -0.0010394784621900
1563958785478833920 0.1656464338300000 0.0031169920694100 0.0010525255929700 0.0013274088269100 -0.0019195919157900 -0.0008147851913240
1563958785494938624 0.1657307446000000 0.0030038414988700 0.0010299613932100 0.0046675843186700 -0.0022828166838700 0.0010094883618900
1563958785510968576 0.1657871305940000 0.0028943887446100 0.0008864879491740 0.0023132937494700 -0.0000622907100478 0.0012613324215600
1563958785528390144 0.1660141050820000 0.0030364994891000 0.0007993322215040 0.0007268704939630 -0.0019969246350200 0.0009277572971770
1563958785543026688 0.1661768108610000 0.0030791554600000 0.0007808713708070 0.0001192407071360 -0.0001689721393630 0.0029641562141500
1563958785559019520 0.1661926656960000 0.0030753258615700 0.0006901607266630 0.0015946094645200 -0.0012436996912600 0.0040067383088200
1563958785574803456 0.1662305742500000 0.0030137146823100 0.0006229049176910 0.0022429972887000 -0.0015907554188700 0.0017687106737900
1563958785590911488 0.1664261668920000 0.0030780159868300 0.0007080343784760 0.0027952564414600 -0.0019013945711800 0.0022489251568900
1563958785607401472 0.1664474755530000 0.0031098239123800 0.0007838592864570 0.0010251088533600 -0.0027731643058400 0.0019393562106400
1563958785622917632 0.1666762381790000 0.0032574189826800 0.0008176774135790 0.0038845310919000 -0.0044306255877000 -0.0001157585356850
1563958785639201792 0.1670271009210000 0.0032125641591800 0.0010179444216200 0.0039160638116300 -0.0016129942378000 -0.0005611127708110
1563958785655189504 0.1671775132420000 0.0031121585052500 0.0012355616781900 0.0038213366642600 -0.0038114690687500 -0.0010996465571200
1563958785671133184 0.1674996018410000 0.0030625727959000 0.0014973557554200 0.0017401585355400 -0.0017369157867500 0.0006636507459920
1563958785686751744 0.1677847057580000 0.0029298311565100 0.0017347540706400 0.0023177601397000 -0.0052643595263400 0.0006407052278520
1563958785703267584 0.1681938916440000 0.0029076510109000 0.0020412385929400 0.0016623097471900 -0.0035126109141900 0.0013953042216600
1563958785718892544 0.1683734506370000 0.0029066386632600 0.0022970058489600 0.0032572855707300 -0.0061804307624700 -0.0000240478548221
1563958785735809792 0.1686306446790000 0.0029344426002400 0.0026077600196000 0.0043286480940900 -0.0036269112024500 -0.0021903889719400
1563958785751765504 0.1689568609000000 0.0031879292801000 0.0028627521824100 0.0061685112305000 -0.0057675316929800 -0.0014311257982600
1563958785766867712 0.1691086143260000 0.0031118209008100 0.0031898245215400 0.0036382500547900 -0.0030942258890700 -0.0006322034168990
1563958785784505344 0.1692827790980000 0.0031525671947700 0.0033919161651300 0.0025807807687700 -0.0033972417004400 -0.0016359426081200
1563958785798855168 0.1693568527700000 0.0031983619555800 0.0037117304746100 0.0022974505554900 -0.0005575141985900 -0.0005175714613870
1563958785816522240 0.1694836467500000 0.0031244207639200 0.0039380942471300 0.0008915856597010 -0.0037493440322600 0.0013763813767600
1563958785831105024 0.1696198731660000 0.0032607929315400 0.0041700475849200 0.0012719818623700 0.0000902079482330 0.0033736119512500
1563958785846809600 0.1698775738480000 0.0033930812496700 0.0043807472102300 0.0026001816149800 -0.0020328785758500 0.0009517525904810
1563958785863582720 0.1700994521380000 0.0033227636013200 0.0044494420290000 0.0014264655765100 -0.0000047354405979 0.0009544645436110
1563958785878879232 0.1702248007060000 0.0033483442384700 0.0046353526413400 0.0019935073796700 -0.0014234076952600 0.0004150678578300
1563958785895375872 0.1704133600000000 0.0034967612009500 0.0048113567754600 0.0042267129756500 0.0001689402561170 -0.0007729874923830
1563958785911527168 0.1705792695280000 0.0035790007095800 0.0049038212746400 0.0038584906142200 -0.0016509748529600 0.0000959785684245
1563958785927746304 0.1706303805110000 0.0037288602907200 0.0049411999061700 0.0031246207654500 0.0002278512984050 -0.0009183227666650
1563958785944643328 0.1707893311980000 0.0037267717998500 0.0049766860902300 0.0018849361222200 -0.0027965079061700 0.0017327409004800
1563958785959013632 0.1709905713800000 0.0036109748762100 0.0049068746157000 0.0036972931120500 -0.0009168775286530 0.0024538387078800
1563958785974889216 0.1711965650320000 0.0035231639631100 0.0049636121839300 0.0029685175977600 -0.0022383960895200 0.0010602324036900
1563958785991341312 0.1713894754650000 0.0034062899649100 0.0050661838613500 0.0023710604291400 -0.0018164308276000 0.0007009733235460
1563958786007335680 0.1717171221970000 0.0032143641728900 0.0049554719589700 0.0028995366301400 -0.0029788690153500 -0.0000042598112486
1563958786023296512 0.1718823909760000 0.0031325323507200 0.0049289274029400 0.0043497700244200 -0.0024354797788000 0.0002063994470520
1563958786039022848 0.1720318943260000 0.0030503042507900 0.0048588346689900 0.0044438554905400 -0.0035298108123200 -0.0003361960407350
1563958786055001856 0.1721264570950000 0.0031598834320900 0.0047068754211100 0.0029921238310600 -0.0008355819154530 -0.0000293838966172
1563958786071123968 0.1722910553220000 0.0032959505915600 0.0045159161090900 0.0020353540312500 -0.0030603981576900 -0.0003531805996320
1563958786087134976 0.1723703145980000 0.0034341234713800 0.0044118827208900 0.0010646786540700 -0.0003083913470620 0.0009465278708380
1563958786103331840 0.1726372987030000 0.0035508137662000 0.0043662441894400 0.0005566554027610 -0.0012684158282400 -0.0006765213329340
1563958786118956544 0.1727506667380000 0.0036049245391000 0.0042174397967800 0.0009416122920810 0.0001529779256090 0.0005102200666440
1563958786134942720 0.1727502793070000 0.0035631738137500 0.0041827685199700 0.0001784225751180 -0.0017143358709300 -0.0006924545159560
1563958786155599360 0.1728901118040000 0.0035663584712900 0.0039874613285100 0.0019170966697900 -0.0028396963607500 0.0005160652799530
1563958786167143680 0.1729764789340000 0.0034747200552400 0.0037168897688400 0.0018820868572200 -0.0036621713079500 -0.0001530920853840
1563958786185170176 0.1729900091890000 0.0034263848792800 0.0035414365120200 0.0009573909919710 -0.0027864570729400 0.0013704742305000
1563958786199250688 0.1731552034620000 0.0034763857256600 0.0034702746197600 -0.0001191801857200 -0.0021823698189100 0.0015221162466300
1563958786215262720 0.1732469350100000 0.0035584901925200 0.0031985708046700 -0.0001681282883510 -0.0018410114571500 0.0011578395497100
1563958786231559936 0.1733341068030000 0.0035996721126100 0.0028607686981600 -0.0010915859602400 0.0000567524693906 0.0022146501578400
1563958786246829824 0.1734404414890000 0.0036830063909300 0.0025646265130500 0.0019270360935500 -0.0015578650636600 -0.0006550797261300
1563958786263188736 0.1736494451760000 0.0037443402689000 0.0021451544016600 -0.0002579182328190 -0.0002616260899230 -0.0010744101600700
1563958786278970368 0.1737655997280000 0.0036909237969700 0.0018157559679800 -0.0000105508624983 -0.0004969949950460 0.0001589731837160
1563958786294778112 0.1739367395640000 0.0036125199403600 0.0015702502569200 -0.0009670306462790 0.0008818728965710 -0.0007862630300220
1563958786311921664 0.1739735007290000 0.0036366686690600 0.0012662463123000 0.0012354463106000 0.0013558529317400 -0.0001384199422320
1563958786326861312 0.1740282475950000 0.0035512589383900 0.0009744125418370 -0.0001167879891000 0.0005028128507550 0.0002369564754190
1563958786343052288 0.1740587651730000 0.0035698076244400 0.0007649653707630 0.0002308339462620 -0.0004495708271860 0.0016296203248200
1563958786359470848 0.1740007996560000 0.0036326711997400 0.0005164774484000 -0.0001758399885150 0.0010486652609000 0.0006109077367000
1563958786374882048 0.1741007864480000 0.0035530899185700 0.0000377524593205 0.0017893356271100 0.0005558780976570 0.0016624322161100
1563958786391596288 0.1740428209300000 0.0035675840918000 -0.0002382525271970 0.0019502156646900 0.0020830687135500 0.0013927447143900
1563958786406876928 0.1741058379410000 0.0035410339478400 -0.0006106048240330 0.0022160739172300 0.0011202743044100 0.0009881454752760
1563958786422860544 0.1741189956670000 0.0035554335918300 -0.0009115901775660 0.0002280641783730 0.0017392006702700 0.0030202055349900
1563958786439241984 0.1740339845420000 0.0035978185478600 -0.0011351640569000 0.0014276121510200 -0.0005412229220380 0.0035152602940800
1563958786454834688 0.1740180104970000 0.0036246601957800 -0.0014111642958600 0.0001009410771080 0.0003089203091800 0.0015147990780000
1563958786472091904 0.1740436255930000 0.0035894114989800 -0.0015834695659600 -0.0006934409029780 -0.0015704252291500 0.0023381591308900
1563958786487293440 0.1738686263560000 0.0035388846881700 -0.0018595185829300 -0.0003149822587150 0.0008146450854840 0.0023724269121900
1563958786503032832 0.1737596094610000 0.0036013328936000 -0.0018670156132400 0.0000375969975721 -0.0024418083485200 0.0018540204037000
1563958786519840768 0.1736136376860000 0.0035895227920300 -0.0019549864810000 0.0011657964205400 -0.0016040932387100 0.0025471174158200
1563958786534914304 0.1735503971580000 0.0036786284763400 -0.0018727297429000 0.0016488623805300 -0.0024639414623400 0.0012672587763500
1563958786551040000 0.1733890324830000 0.0036506180185800 -0.0018982643960000 0.0006557860178870 -0.0023773019202100 0.0032405236270300
1563958786567243776 0.1731349676850000 0.0036630223039500 -0.0020606170874100 0.0012997459853100 -0.0037953616119900 0.0046216403134200
1563958786582852096 0.1729899048810000 0.0036933317314800 -0.0019826933275900 0.0012346069561300 -0.0019394932314800 0.0041433032602100
1563958786598739456 0.1727954745290000 0.0037477549631100 -0.0019641194958200 0.0006468922365460 -0.0044965022243600 0.0039685699157400
1563958786614877696 0.1727415919300000 0.0037254672497500 -0.0018620749469800 -0.0002736760070550 -0.0013918516924600 0.0020569108892200
1563958786631339264 0.1725513637070000 0.0037438611034300 -0.0016423327615500 0.0001045117969620 -0.0049506579525800 0.0038397279568000
1563958786648733952 0.1724343299870000 0.0036743187811200 -0.0014071767218400 0.0000398341508117 -0.0027411782648400 0.0049034235999000
1563958786663092224 0.1722655296330000 0.0035944005940100 -0.0012015873799100 0.0019339878344900 -0.0066855582408600 0.0001396134030070
1563958786679284736 0.1721309125420000 0.0036439548712200 -0.0010247032623700 0.0004126919666310 -0.0041675916872900 0.0035645796451700
1563958786694884608 0.1719825118780000 0.0036784848198300 -0.0007616166840310 0.0004067429108550 -0.0050617069937300 0.0033459847327300
1563958786712809216 0.1717211306100000 0.0037412389647200 -0.0005533184157680 0.0015807142481200 -0.0018488700734500 0.0017645322950600
1563958786726908928 0.1714833676820000 0.0038342124316800 -0.0002171621163140 0.0006113068666310 -0.0059025622904300 0.0005894352216270
1563958786744756480 0.1712069362400000 0.0039289658889200 0.0000143665902215 0.0004695508978330 -0.0049954149872100 0.0011185682378700
1563958786760712704 0.1709785163400000 0.0039782449603100 0.0002145168837160 0.0011169195640800 -0.0068938322365300 0.0033023713622200
1563958786777912064 0.1708419919010000 0.0040309666656000 0.0005383274983610 0.0015468553174300 -0.0045191664248700 0.0023441684898000
1563958786791172096 0.1707116365430000 0.0041153142228700 0.0009701185626910 0.0020720232278100 -0.0067034065723400 0.0018030202481900
1563958786806911488 0.1705187112090000 0.0040644761174900 0.0012590689584600 0.0025654227938500 -0.0029952437616900 0.0034489943645900
1563958786822991104 0.1703325808050000 0.0041003250517000 0.0015993334818600 0.0029005338437900 -0.0066708358936000 0.0017019037623000
1563958786841723648 0.1702729463580000 0.0038978168740900 0.0019051593262700 0.0045488229952800 -0.0027682406362100 0.0031778677366700
1563958786855283200 0.1700848340990000 0.0037959006149300 0.0021497253328600 0.0032462084200200 -0.0046306895092100 0.0029739791061700
1563958786871367168 0.1699393093590000 0.0038168050814400 0.0024387373123300 0.0029304900672300 -0.0014193225652000 0.0031695307698100
1563958786887449600 0.1699221730230000 0.0040832017548400 0.0025892411358700 0.0020769443363000 -0.0039582652971100 0.0032270702067800
1563958786902835712 0.1698615550990000 0.0043030348606400 0.0027856638189400 0.0039185946807300 -0.0020478102378500 0.0034569702111200
1563958786919132928 0.1698352098460000 0.0044434862211300 0.0029208897613000 0.0025966833345600 -0.0026278584264200 0.0019893413409600
1563958786934814976 0.1699486672880000 0.0046046329662200 0.0031325558666100 0.0048435786739000 0.0005689103272740 -0.0000097945821835
1563958786950947072 0.1698431372640000 0.0046213073656000 0.0031687212176600 0.0034956517629300 -0.0019977511838100 -0.0004191130865370
1563958786967075840 0.1697592884300000 0.0045785428956200 0.0032246322371100 0.0043338178657000 -0.0038695109542500 0.0011078324168900
1563958786982786304 0.1697791814800000 0.0045156460255400 0.0031667994335300 0.0036388745065800 -0.0030622477643200 -0.0005835510673930
1563958786998803968 0.1698241531850000 0.0045164148323200 0.0032845735549900 0.0044250409118800 -0.0015239688800600 0.0014766249805700
1563958787014815232 0.1699415445330000 0.0045437291264500 0.0032051575835800 0.0025702859275000 -0.0009941849857570 0.0004273554077370
1563958787030866432 0.1695385277270000 0.0046538971364500 0.0033128578215800 0.0042859171517200 0.0007728279451840 0.0025632169563300
1563958787047014400 0.1691322624680000 0.0046953503042500 0.0034572372678700 0.0019747079350100 -0.0023361972998800 0.0009342139237560
1563958787065334784 0.1684516817330000 0.0046292343176900 0.0035923721734400 0.0043164091184700 -0.0023305458016700 -0.0003375105443410
1563958787079011584 0.1674191504720000 0.0045102839358200 0.0037152052391300 0.0049925055354800 -0.0052681011147800 -0.0038356117438500
1563958787094896896 0.1660685688260000 0.0046399426646500 0.0039427625015400 0.0038733296096300 -0.0054089473560500 -0.0030051169451300
1563958787111585280 0.1643283069130000 0.0045062620192800 0.0041608605533800 0.0032371098641300 -0.0034134681336600 -0.0037708124145900
1563958787127209728 0.1621993780140000 0.0046004247851700 0.0043397224508200 0.0039160009473600 -0.0024434786755600 -0.0046892045065800
1563958787143296000 0.1601315140720000 0.0045316084288100 0.0046094050630900 0.0015021563740400 -0.0007261001737790 -0.0048131626099300
1563958787158808832 0.1579084843400000 0.0045208986848600 0.0046910820528900 0.0039694844745100 -0.0010639154352200 -0.0054400977678600
1563958787175119872 0.1554739624260000 0.0045527983456900 0.0048188827931900 0.0038524060510100 -0.0001292148372160 -0.0068377228453800
1563958787191098880 0.1531209200620000 0.0046991882845800 0.0048432601615800 0.0039083338342600 -0.0017251347890100 -0.0049010985530900
1563958787213531904 0.1507872045040000 0.0049197790212900 0.0048984489403700 0.0028177071362700 0.0000072698458098 -0.0060850437730600
1563958787223254784 0.1484842449430000 0.0050650737248400 0.0048594125546500 0.0022436096333000 -0.0000141556374729 -0.0043278872035400
1563958787239576832 0.1462887376550000 0.0052330549806400 0.0046945982612700 -0.0002387493586870 0.0010241481941200 -0.0037223848048600
1563958787255695616 0.1440288275480000 0.0053953798487800 0.0044881659559900 0.0016269376501400 0.0010838233865800 -0.0031451231334400
1563958787270930432 0.1417714357380000 0.0054139718413400 0.0043571698479400 0.0012555938446900 -0.0001281413133260 -0.0048112752847400
1563958787287131136 0.1397522538900000 0.0054995687678500 0.0042053069919300 0.0022023203782700 -0.0016646335134300 -0.0046586752869200
1563958787303231232 0.1377301663160000 0.0055356966331600 0.0040651555173100 0.0028484968934200 -0.0008399896323680 -0.0065879900939800
1563958787319007232 0.1356194466350000 0.0054072840139300 0.0038796991575500 0.0043954253196700 -0.0024399263784300 -0.0054428284056500
1563958787335243264 0.1338104158640000 0.0052215196192300 0.0037966046948000 0.0018887874903200 -0.0003140352782790 -0.0049006971530600
1563958787351021568 0.1321317404510000 0.0052118515595800 0.0036425306461800 0.0024731629528100 -0.0017017109785200 -0.0036256439052500
1563958787368253440 0.1304558813570000 0.0051131276413800 0.0036220520269100 0.0019033144926700 -0.0002037179947370 -0.0034000913146900
1563958787383181056 0.1289348155260000 0.0050687575712800 0.0034995188470900 0.0025608374271500 -0.0020796763710700 -0.0033371334429800
1563958787398806016 0.1274421215060000 0.0048779658973200 0.0034774297382700 0.0030139416921900 0.0008177615236490 -0.0037615846376900
1563958787416717312 0.1258244663480000 0.0047512659803000 0.0033689963165700 0.0029567969031600 0.0001328646321780 -0.0037877573631700
1563958787431184384 0.1242245137690000 0.0046239984221800 0.0032562937121800 0.0010474105365600 0.0016694199293900 -0.0010065542301200
1563958787447099648 0.1227403655650000 0.0044212951324900 0.0030336251948000 0.0029905291739900 0.0008299897890540 -0.0013435746077400
1563958787462964224 0.1214017495510000 0.0043406700715400 0.0029807372484400 0.0035548333544300 0.0020123294089000 -0.0039078993722800
1563958787479083520 0.1200406253340000 0.0041765822097700 0.0028796680271600 0.0023219021968500 0.0011763139627900 -0.0013806443894300
1563958787496230400 0.1187248975040000 0.0040876721032000 0.0027603716589500 0.0017992281355000 0.0041256649419700 -0.0003635771572590
1563958787510876160 0.1173603087660000 0.0039831493049900 0.0026759684551500 0.0015835794620200 0.0014323859941200 0.0000775216904003
1563958787528425984 0.1159863546490000 0.0039412644691800 0.0025718468241400 0.0024835336953400 0.0042033498175400 -0.0008484420832250
1563958787544471552 0.1146471425890000 0.0039532301016200 0.0025017738807900 0.0015535709681000 0.0017393268644800 -0.0025820631999500
1563958787558902272 0.1135776489970000 0.0039731157012300 0.0024602522607900 0.0025999171193700 0.0032121918629900 -0.0029606977477700
1563958787575281408 0.1123272627590000 0.0039611398242400 0.0023969749454400 0.0021775767672800 0.0014879613881900 -0.0016051931306700
1563958787590928128 0.1110703945160000 0.0039926972240200 0.0023491655010700 0.0029737534932800 0.0020540570840200 -0.0010194586357100
1563958787606755072 0.1099171042440000 0.0040020854212300 0.0023110108450100 0.0024659484624900 0.0004109329311180 -0.0009363495628350
1563958787623378688 0.1087776571510000 0.0040910695679500 0.0022783584427100 0.0030299390200500 0.0021392568014600 -0.0009916562121360
1563958787639607808 0.1075288802390000 0.0042469990439700 0.0021825947333100 0.0035973158665000 -0.0006539518944920 -0.0013541199732600
1563958787654807552 0.1064253747460000 0.0044931205920900 0.0021757779177300 0.0036370612215300 0.0016001603798900 -0.0001869852421810
1563958787671830016 0.1053353995080000 0.0046987212263000 0.0021790608298000 0.0023360280320000 0.0003069995436820 -0.0025375143159200
1563958787686802944 0.1040841564540000 0.0048411563038800 0.0022381998132900 0.0040870346128900 0.0017809810815400 -0.0014731014380200
1563958787702686464 0.1029415875670000 0.0049530798569300 0.0021509598009300 0.0043172151781600 -0.0007550574373450 -0.0028266503941300
1563958787719496448 0.1016813963650000 0.0049638170748900 0.0021127981599400 0.0044649732299100 0.0020965214353100 -0.0015562807675500
1563958787734837504 0.1005277335640000 0.0050385990180100 0.0020887807477300 0.0043298774398900 0.0001023295917550 -0.0043189469724900
1563958787750881280 0.0993004888296000 0.0051265363581500 0.0019665651489000 0.0032132049091200 0.0025120377540600 -0.0022885405924200
1563958787766742528 0.0980265289545000 0.0050863111391700 0.0019143709214400 0.0036251447163500 -0.0011961560230700 -0.0046461028978200
1563958787783575552 0.0968107283115000 0.0050067147240000 0.0019104027887800 0.0047942907549400 0.0010600710520500 -0.0032271726522600
1563958787798808576 0.0953447297215000 0.0049055819399700 0.0018762731924700 0.0046220007352500 -0.0024435315281200 -0.0056178597733400
1563958787815198976 0.0940098688006000 0.0047634011134500 0.0018527597421800 0.0040816813707400 0.0000185815151781 -0.0045192982070100
1563958787831407360 0.0926996693015000 0.0047322036698500 0.0018393902573700 0.0024643093347500 -0.0027880226261900 -0.0034775703679800
1563958787846751232 0.0915547460318000 0.0046736164949800 0.0017608169000600 0.0053522437810900 -0.0033484250307100 -0.0051792222075200
1563958787863939328 0.0903551131487000 0.0045776790939300 0.0018369762692600 0.0029470152221600 -0.0043982099741700 -0.0043033692054500
1563958787878904832 0.0890590474010000 0.0045170192606700 0.0017840063665100 0.0031934371218100 -0.0021153620909900 -0.0034256197977800
1563958787895370496 0.0878062546253000 0.0043305549770600 0.0018395293736800 0.0031927216332400 -0.0041339076124100 -0.0044024065136900
1563958787910871296 0.0865315794945000 0.0041724271141000 0.0016902841161900 0.0017271030228600 -0.0020265732891900 -0.0027338326908600
1563958787927645184 0.0851848721504000 0.0039491006173200 0.0016547216801000 0.0013933494919900 -0.0017176365945500 -0.0022889052052100
1563958787943044096 0.0837868154049000 0.0038331162650100 0.0015993944834900 0.0028764931485100 -0.0000384678714909 -0.0031812821980600
1563958787959397888 0.0823791325092000 0.0036847244482500 0.0015865187160700 0.0017910897731800 -0.0016235060757000 -0.0038851236458900
1563958787974935296 0.0811217650771000 0.0035733205732000 0.0016373345861200 0.0029855309985600 -0.0021579912863700 -0.0023785755038300
1563958787991952896 0.0796275138855000 0.0034503557253600 0.0016110597644000 0.0040162736550000 -0.0046830982901200 -0.0054764891974600
1563958788007193600 0.0782429724932000 0.0033624211791900 0.0015973679255700 0.0038141347467900 -0.0049718399532100 -0.0045076995156700
1563958788022792192 0.0768048316240000 0.0032300869934300 0.0015603022184200 0.0003586001112130 -0.0053636627271800 -0.0034968662075700
1563958788038993152 0.0753598213196000 0.0031722872518000 0.0015942691825300 0.0026343371719100 -0.0044779912568600 -0.0021917165722700
1563958788054917376 0.0737428069115000 0.0030197103042200 0.0015903149033000 0.0027710127178600 -0.0049028806388400 -0.0025853463448600
1563958788071100928 0.0722277611494000 0.0031177557539200 0.0015802985290100 0.0014398028142800 -0.0029217242263300 -0.0008466334547850
1563958788086782464 0.0707907378674000 0.0031304748263200 0.0015337963122900 0.0013956406619400 -0.0030964929610500 -0.0029588693287200
1563958788102826496 0.0692677050829000 0.0031178586650600 0.0014784224331400 0.0017212645616400 -0.0032708623912200 -0.0019949269481000
1563958788122403584 0.0678995326161000 0.0031287006568200 0.0015193008584900 0.0010803235927600 -0.0037377791013600 -0.0031816640403100
1563958788135223040 0.0665098130703000 0.0031747398898000 0.0013774242252100 0.0026989236939700 -0.0038845448289100 -0.0019996534101700
1563958788151707648 0.0650956183672000 0.0031541404314300 0.0014593369560300 0.0008431114256380 -0.0017706912476600 -0.0027611195109800
1563958788166756096 0.0636849552393000 0.0031657840590900 0.0014349264092700 0.0014373355079400 -0.0030390014872000 -0.0026321124751100
1563958788182990080 0.0622709393501000 0.0032589032780400 0.0014585403259800 0.0005952930659990 -0.0017557817045600 -0.0029977830126900
1563958788198980096 0.0608691833913000 0.0033077029511300 0.0013077516341600 0.0007747577037660 -0.0011702873744100 -0.0011434135958600
1563958788214806272 0.0593124069273000 0.0033154280390600 0.0012051120866100 -0.0000958501041168 -0.0013889520196200 -0.0025897785089900
1563958788231912704 0.0579276308417000 0.0033723099622900 0.0010278580011800 -0.0012987283989800 -0.0005496267112900 0.0001085233670890
1563958788246935808 0.0564641356468000 0.0035672977101100 0.0009851463837550 0.0001207712703040 -0.0008088419563140 -0.0013130495790400
1563958788263224064 0.0550963096321000 0.0035578894894600 0.0008336948230860 -0.0016033948632000 -0.0019171648891600 0.0002879692765420
1563958788280207360 0.0537058897316000 0.0036934691015600 0.0007793778786440 -0.0007634386420250 -0.0012878330890100 -0.0016450106632000
1563958788295200256 0.0523353554308000 0.0038507513236300 0.0008007803116930 -0.0024931994266800 -0.0009696208871900 0.0001737765269350
1563958788310853120 0.0508894845843000 0.0038597430102500 0.0007653315551580 -0.0027501336298900 0.0013724736636500 -0.0000505060452269
1563958788327190272 0.0496139936149000 0.0037674398627100 0.0007995143532750 -0.0006418937118720 -0.0002469275787010 0.0001939763751580
1563958788342726144 0.0482090376318000 0.0036488643381700 0.0007628963794560 -0.0037430622614900 0.0019021295011000 -0.0001158356317320
1563958788360672768 0.0467668063939000 0.0035102749243400 0.0008853702456690 -0.0019545352552100 0.0003483974142000 -0.0015630851266900
1563958788374785536 0.0453096441925000 0.0032998581882600 0.0008637912105770 -0.0011420998489500 0.0020044052507700 -0.0028620106168100
1563958788390794496 0.0439032725990000 0.0031242149416400 0.0008998252451420 -0.0005389985162760 0.0012533089611700 -0.0036871400661800
1563958788407037440 0.0423910953104000 0.0030125922057800 0.0008867289870980 0.0013113825116300 0.0015065819025000 -0.0040062973275800
1563958788422755072 0.0410331338644000 0.0028430421371000 0.0008937467937360 -0.0013009964022800 0.0002712281711870 -0.0032938520889700
1563958788439719680 0.0397381596267000 0.0027584442868800 0.0008192964014600 -0.0034856281708900 0.0030160073656600 -0.0019461043411900
1563958788454852608 0.0383150279522000 0.0026964896824200 0.0007935035391710 -0.0022685027215600 0.0004041085776410 0.0002801989321600
1563958788470826240 0.0370095409453000 0.0026465307455500 0.0006920801242810 -0.0023828591220100 0.0008412784663960 -0.0006970292306510
1563958788487556608 0.0357352569699000 0.0026038605719800 0.0006844088202340 -0.0018225910607700 -0.0013286020839600 -0.0026419823989300
1563958788502800384 0.0343467704952000 0.0026774087455100 0.0007885991944930 -0.0027387212030600 -0.0004864500951950 -0.0022799572907400
1563958788519744256 0.0329318158329000 0.0026097258087200 0.0007896904135120 -0.0034217981156000 -0.0023757431190500 -0.0009034733520820
1563958788534824704 0.0316725410521000 0.0027199257165200 0.0008068653987720 -0.0019320386927600 0.0000048441797844 -0.0020420989021700
1563958788550794752 0.0302712712437000 0.0027604042552400 0.0008813289459790 -0.0022769619245100 -0.0009934805566440 -0.0010772135574400
1563958788566986752 0.0288735646755000 0.0026400708593400 0.0008075676742010 -0.0015773583436400 0.0008539777481930 -0.0008802184602250
1563958788582982400 0.0275660231709000 0.0026526805013400 0.0009179660119120 -0.0017264665802900 0.0001887768885350 -0.0026048717554700
1563958788599003648 0.0262807328254000 0.0027595399878900 0.0009232717566190 -0.0010782015742700 0.0022579820361000 -0.0033292178995900
1563958788614765312 0.0249164830893000 0.0028280480764800 0.0009954988490790 -0.0018654647283300 0.0033904984593400 -0.0018442221917200
1563958788630773248 0.0233863219619000 0.0030384801793800 0.0009194466983900 -0.0026634302921600 0.0047144223935900 -0.0010907987598300
1563958788647784448 0.0221026837826000 0.0031578377820600 0.0009250960429200 -0.0012885973556000 0.0030160481110200 -0.0015100541058900
1563958788662809088 0.0205604638904000 0.0032491604797500 0.0009009790956040 0.0007632189081050 0.0036370316520300 -0.0013766315532800
1563958788679890688 0.0191704295576000 0.0033203435596100 0.0010135474149100 -0.0001596961083120 0.0001256780960830 -0.0017279406311000
1563958788695015168 0.0179117154330000 0.0034124841913600 0.0009212503209710 0.0013346225023300 0.0009877764387060 -0.0013257350074100
1563958788712221440 0.0165794994682000 0.0036319973878600 0.0009870236972350 -0.0001836501760410 -0.0008375460165550 -0.0016461992636300
1563958788728006144 0.0151281524450000 0.0037403134629100 0.0008861969108690 0.0007246868335640 -0.0007168731535780 -0.0018624225631400
1563958788742847488 0.0137693341821000 0.0038669914938500 0.0008921247208490 -0.0015648269327400 0.0000511514372192 -0.0024454738013400
1563958788758810880 0.0123481545597000 0.0040598376654100 0.0007815164281060 -0.0012322493130300 0.0018694821046700 -0.0026169919874500
1563958788776535296 0.0108234370127000 0.0041309692896900 0.0006169171538200 -0.0010655086953200 0.0016886575613200 -0.0020875225309300
1563958788791130368 0.0093981903046400 0.0042805862613000 0.0004764697805510 -0.0022047036327400 0.0044702766463200 0.0003146865055900
1563958788807600640 0.0080148596316600 0.0044089006260000 0.0002774557797240 -0.0029263009782900 0.0040078549645800 -0.0017427598359100
1563958788823306752 0.0064226323738700 0.0045224013738300 0.0001795780990510 -0.0021029666531800 0.0045418119989300 -0.0009688305435700
1563958788839822592 0.0049433810636400 0.0044930181466000 0.0001669321063670 -0.0030821936670700 0.0035158200189500 -0.0015163854695900
1563958788857385216 0.0035536368377500 0.0045662252232400 0.0001658484834480 -0.0001789818052200 0.0035832552239300 -0.0031308771576700
1563958788873033728 0.0021638427861000 0.0045732748694700 0.0001970931771210 -0.0018402948044200 0.0042223222553700 -0.0024039025884100
1563958788888641024 0.0007621513796040 0.0045582228340200 0.0000481397910335 -0.0008931542979550 0.0045272316783700 -0.0006082522450010
1563958788904539904 -0.0005842177197340 0.0047732866369200 0.0000776739761932 -0.0003717631334440 0.0035463452804800 -0.0024737000931100
1563958788919129600 -0.0019281484419500 0.0048682712949800 -0.0000637445264147 0.0014523322461200 0.0018015567911800 -0.0028628394939000
1563958788936560896 -0.0033755139447700 0.0049873660318600 -0.0001111201054300 0.0012422924628500 0.0013776957057400 -0.0029197437688700
1563958788951097856 -0.0048257033340600 0.0050438581965900 -0.0002089270565190 0.0018567740917200 0.0030000945553200 -0.0026776085142000
1563958788968971776 -0.0062860795296700 0.0051419460214700 -0.0002760702336670 0.0008022240363060 0.0018914450192800 -0.0024166798684700
1563958788984766976 -0.0078362645581400 0.0051405183039600 -0.0002826332638510 -0.0015825604787100 0.0025233146734500 -0.0003689368604680
1563958788998883840 -0.0092880725860600 0.0051525612361700 -0.0002912604250010 -0.0011066909646600 0.0030860514380000 -0.0026050754822800
1563958789015254784 -0.0108017530292000 0.0050834980793300 -0.0004002636705990 -0.0008613936370240 0.0018454092787600 -0.0025618039071600
1563958789031556096 -0.0121211176738000 0.0050366832874700 -0.0004881268832830 -0.0058471737429500 0.0059959725476800 -0.0010186810977800
1563958789046872576 -0.0132122663781000 0.0049001844599800 -0.0005899954703640 -0.0018739942461300 0.0029896176420200 0.0001233719231100
1563958789062898176 -0.0141346445307000 0.0048657194711300 -0.0006581974448640 -0.0047979447990700 0.0044014011509700 -0.0041517750360100
1563958789079159552 -0.0147745320573000 0.0047429455444200 -0.0007631324115210 -0.0062255151569800 0.0055308351293200 -0.0033504143357300
1563958789095656960 -0.0150829451159000 0.0048956316895800 -0.0007768099312670 -0.0076647237874600 0.0070580975152600 -0.0012460360303500
1563958789110990080 -0.0150321228430000 0.0049515035934700 -0.0008078509708870 -0.0109642548487000 0.0095812417566800 0.0012789763277400
1563958789126929408 -0.0146992020309000 0.0048020700924100 -0.0008936706581150 -0.0107747633010000 0.0085137411952000 0.0003536457079460
1563958789144401920 -0.0141659816727000 0.0048179076984500 -0.0009328870219180 -0.0104115027934000 0.0096069229766700 0.0020389193669000
1563958789159397888 -0.0135170426220000 0.0046873674728000 -0.0009994138963520 -0.0117363911122000 0.0093109942972700 0.0004472201108000
1563958789176211200 -0.0129254618660000 0.0045933402143400 -0.0010432559065500 -0.0113719515502000 0.0084426673129200 0.0008931735646910
1563958789192724480 -0.0122755924240000 0.0044862083159400 -0.0010095754405500 -0.0119700338691000 0.0097394697368100 0.0005987877957520
1563958789206936064 -0.0114830760285000 0.0043311072513500 -0.0010961237130700 -0.0112566286698000 0.0088645219802900 0.0028955470770600
1563958789224863232 -0.0105106448755000 0.0042025377042600 -0.0011545631568900 -0.0096910493448400 0.0101019898430000 0.0008861665846780
1563958789239080960 -0.0095999184995900 0.0040391148068000 -0.0011728568933900 -0.0107059739530000 0.0091098211705700 0.0015347951557500
1563958789255751168 -0.0086163440719200 0.0038571693003200 -0.0012862727744500 -0.0103092528880000 0.0107165686786000 0.0037605548277500
1563958789270738688 -0.0077613065950600 0.0035511886235300 -0.0012739424128100 -0.0091269295662600 0.0095661710947800 0.0039942748844600
1563958789288428288 -0.0070423190482000 0.0032040895894200 -0.0012614419683800 -0.0076504694297900 0.0095139844343100 0.0040818355046200
1563958789302812672 -0.0060753859579600 0.0028060462791500 -0.0013372387038500 -0.0102625787258000 0.0094262631610000 0.0058986223302800
1563958789318933760 -0.0052259685471700 0.0024486996699100 -0.0013211794430400 -0.0094790589064400 0.0094777112826700 0.0044104559347000
1563958789335066880 -0.0043040658347300 0.0019612293690400 -0.0013341683661600 -0.0079957712441700 0.0081731704995000 0.0064083612524000
1563958789351310592 -0.0034446632489600 0.0014994265511600 -0.0013929107226400 -0.0089292675256700 0.0085393190383900 0.0048134587705100
1563958789367628544 -0.0026063909754200 0.0010224694851800 -0.0014703419292300 -0.0075360173359500 0.0093668084591600 0.0043020434677600
1563958789383610368 -0.0017126966267800 0.0006009242497380 -0.0015020295977600 -0.0073643419891600 0.0088461562991100 0.0035991086624600
1563958789398952960 -0.0010190564207700 0.0002871283504650 -0.0016998962964900 -0.0078129600733500 0.0076066041365300 0.0052448315545900
1563958789415684352 -0.0004271263023840 0.0001059381247610 -0.0017262428300500 -0.0064030219800800 0.0053328201174700 0.0032385084778100
1563958789431437312 0.0000836299295770 -0.0000396285176976 -0.0017166314646600 -0.0073301475495100 0.0059236073866500 0.0045269853435500
1563958789446862080 0.0004424375656530 -0.0000961981204455 -0.0017512030899500 -0.0060240332968500 0.0045254817232500 0.0025628432631500
1563958789463361280 0.0007523253443650 -0.0001623673742870 -0.0018718017963700 -0.0057689212262600 0.0029536788351800 0.0024771424941700
1563958789481638912 0.0010361968306800 -0.0001766859641070 -0.0019784034229800 -0.0043123723007700 0.0048266793601200 0.0021377173252400
1563958789495469056 0.0012666408438200 -0.0000669906949042 -0.0019666017033200 -0.0042906431481200 0.0041452106088400 0.0013235849328300
1563958789511305728 0.0013910288689700 0.0001632876519580 -0.0020335130393500 -0.0042976229451600 0.0053445352241400 0.0018752226606000
1563958789526848000 0.0016975528560600 0.0002855177153830 -0.0022657669615000 -0.0042467755265500 0.0051359487697500 0.0000327004818246
1563958789543095552 0.0018861884018400 0.0004203486314510 -0.0023278396111000 -0.0029732550028700 0.0034998757764700 -0.0015966593055100
1563958789559100928 0.0019557247869700 0.0003804730658890 -0.0024545330088600 -0.0039876801893100 0.0029063741676500 0.0006814589723940
1563958789575264000 0.0022419714368900 0.0005495005752890 -0.0026581771671800 -0.0047309831716100 0.0027074953541200 0.0012256259797100
1563958789591655424 0.0025160452351000 0.0006111773545850 -0.0027908349875400 -0.0055915038101400 0.0034099628683200 0.0016172631876500
1563958789606773248 0.0027068201452500 0.0007001765188760 -0.0029084312263900 -0.0047292825765900 0.0024938059505100 0.0014498507371200
1563958789624027648 0.0028197206556800 0.0007604403072040 -0.0030250921845400 -0.0058813653886300 0.0028373557142900 0.0025906877126500
1563958789639872768 0.0029661366716000 0.0007815930875950 -0.0029998074751300 -0.0055397762917000 0.0037247177679100 0.0021178782917600
1563958789654810624 0.0032106046564900 0.0007540649385190 -0.0028833341784800 -0.0071127633564200 0.0023796185851100 0.0026723800692700
1563958789671841024 0.0033136310521500 0.0008543411386200 -0.0029018314089600 -0.0053260964341500 0.0019647027365900 0.0039730155840500
1563958789687112704 0.0035006476100500 0.0006934734410610 -0.0027654927689600 -0.0046844501048300 -0.0006967546069060 0.0006108034285720
1563958789702863872 0.0036302797962000 0.0005060095572840 -0.0026513510383700 -0.0038278691936300 -0.0002404155966360 0.0024069247301700
1563958789719246336 0.0036263193469500 0.0003241456870460 -0.0023705309722600 -0.0054810224100900 0.0001343032345180 0.0034408308565600
1563958789734936064 0.0038562288973500 0.0002565092581790 -0.0021647554822300 -0.0051131313666700 -0.0002897848025900 0.0032976453658200
1563958789751544576 0.0038576915394500 0.0002216313732790 -0.0019191531464500 -0.0054695182479900 0.0017671099631100 0.0052521880716100
1563958789766919936 0.0038198840338700 0.0000909475711524 -0.0016737307887500 -0.0051124095916700 0.0015496761770900 0.0034401237499000
1563958789783161600 0.0037661551032200 -0.0000504657182319 -0.0014720809413100 -0.0042021209374100 -0.0001999972446360 0.0024441075511300
1563958789799707392 0.0035524358972900 -0.0002656378201210 -0.0012597109889600 -0.0046640099026300 0.0018683795351500 0.0035452402662500
1563958789815052800 0.0034054967109100 -0.0004424008948260 -0.0009029454668050 -0.0046097682789000 0.0019954482559100 0.0022700517438400
1563958789831504896 0.0031715689692600 -0.0005104051670060 -0.0007611863547940 -0.0043940860778100 0.0031880659516900 0.0032367869280300
1563958789846977536 0.0029707702342400 -0.0006562221678910 -0.0005258090095590 -0.0047192685306100 0.0017936176154800 0.0012739138910500
1563958789862900224 0.0028344327583900 -0.0006287199794310 -0.0001943162351380 -0.0014886523131300 0.0008207047940230 0.0017999011324700
1563958789881992448 0.0025955077726400 -0.0006700188969260 0.0001199248072230 -0.0034678920637800 0.0027270764112500 0.0023446080740500
1563958789895268608 0.0025172196328600 -0.0005969593185000 0.0004452908469830 -0.0020783259533300 0.0014027913566700 0.0013883784413300
1563958789914807552 0.0023394105956000 -0.0006690251757390 0.0008764748345130 -0.0019430587999500 0.0024852890055600 0.0008963010041040
1563958789927145216 0.0022003969643300 -0.0007686975295660 0.0013501970097400 -0.0044219996780200 0.0022670850157700 0.0001162540720540
1563958789942890240 0.0021146771032400 -0.0007033562869760 0.0018938411958500 -0.0038637428078800 0.0008039860986170 -0.0016503909137100
1563958789961034496 0.0019455237779800 -0.0006439433782360 0.0023103968706000 -0.0035108660813400 0.0012424543965600 -0.0003173554141540
1563958789977204736 0.0018312096362900 -0.0006000454886820 0.0027186665684000 -0.0026740878820400 0.0002379565557930 -0.0004746508202520
1563958789991060480 0.0017395206959900 -0.0005321393837220 0.0030785202980000 -0.0024928005877900 -0.0004041396896350 -0.0007270601927300
1563958790007390208 0.0016995979240200 -0.0004609915777110 0.0035095529165100 -0.0007430947152900 -0.0002548577031120 -0.0027384185232200
1563958790022919424 0.0015367696760200 -0.0003414940438230 0.0039699198678100 0.0002796702319760 -0.0012866670731500 -0.0015457012923400
1563958790039654144 0.0014892008621200 -0.0002047568996200 0.0043906350620100 -0.0016268099425400 -0.0000547472445760 -0.0014094949001400
1563958790055074048 0.0015836025122600 -0.0000684278929839 0.0047244504094100 -0.0010950419819000 0.0008477214723830 0.0004318988067100
1563958790070907648 0.0016467679524800 -0.0001324061013290 0.0050863116048300 -0.0027355230413400 0.0022491868585300 0.0009276004275310
1563958790086939392 0.0016761677106800 -0.0002744497323870 0.0054713711142500 -0.0022081139031800 0.0020202794112300 0.0011644645128400
1563958790103094528 0.0018582403427000 -0.0001382153423040 0.0058680283837000 -0.0023544877767600 0.0000744202116039 -0.0014313774881900
1563958790119261696 0.0018682997906600 0.0000921066093724 0.0061403941363100 -0.0043956520967200 0.0005471844924610 0.0002059758990070
1563958790135151872 0.0018834143411400 0.0002167459169870 0.0063866311684300 -0.0052274223417000 0.0010256567038600 -0.0005937125533820
1563958790151030784 0.0019519907655200 0.0004501996736510 0.0066096605733000 -0.0052466690540300 0.0018337738001700 0.0006694240146320
1563958790167257600 0.0021146014332800 0.0002745170495470 0.0068273372016800 -0.0022441679611800 0.0016900178743500 -0.0010811287211300
1563958790183151104 0.0021160359028700 0.0002349502610740 0.0068870950490200 -0.0015699063660600 0.0015042498707800 -0.0004551044548860
1563958790198912000 0.0021975755225900 0.0002759050112220 0.0068932073190800 -0.0030699195340300 0.0026632281951600 -0.0001804713829190
1563958790215140864 0.0023321914486600 0.0002219460875490 0.0068159345537400 -0.0022279897239100 0.0028290017508000 -0.0002720711636360
1563958790231077120 0.0023912203032500 0.0001102486421590 0.0067551652900900 -0.0010163206607100 0.0032890555448800 0.0000092474510893
1563958790248671488 0.0025290516205100 0.0000708025327185 0.0064924755133700 -0.0027667533140600 0.0030415165238100 -0.0004910653224210
1563958790262920448 0.0026440282817900 0.0001343858166360 0.0061657256446800 -0.0017250737873800 0.0027526891790300 -0.0020597709808500
1563958790278920704 0.0027312426827800 0.0002860351814890 0.0058982656337300 -0.0005734257865700 0.0033385502174500 -0.0010710870847100
1563958790295116288 0.0027480437420300 0.0003613022854550 0.0054702116176500 -0.0014555287780200 0.0041071856394400 -0.0030675455927800
1563958790311246848 0.0028177041094800 0.0002862251712940 0.0052105365321000 -0.0021493739914100 0.0026568246539700 -0.0018773654010100
1563958790327485696 0.0027364941779500 0.0001563204714330 0.0046483171172400 -0.0025685834698400 0.0031846454367000 -0.0000543632195331
1563958790342803968 0.0026949953753500 0.0000931547983782 0.0041003595106300 -0.0022128832060800 0.0036397667136000 0.0019814914558100
1563958790360903424 0.0027116867713600 0.0001599589450050 0.0035528780426800 0.0001794796844480 0.0039462093263900 0.0003363563446330
1563958790379046656 0.0026579070836300 0.0001562620309410 0.0031543429940900 -0.0012212978908800 0.0042514866218000 -0.0004301003064030
1563958790392591104 0.0025234115310000 0.0002178190770790 0.0026995674707000 0.0005160071305000 0.0029544159770000 -0.0011978414841000
1563958790406800128 0.0025186864659200 0.0002697751333470 0.0022954908199600 0.0007785185589460 0.0001589986495670 -0.0026357031893000
1563958790423068416 0.0024959426373200 0.0003995390143250 0.0017788384575400 0.0012711253948500 0.0007701334543530 -0.0025917871389500
1563958790438877952 0.0024592443369300 0.0004669322224800 0.0012997759040400 0.0021864098962400 0.0010731255170000 -0.0016756246332100
1563958790455160576 0.0024016024544800 0.0004761514719580 0.0007784810150040 0.0013254224322700 0.0014157758560000 -0.0040867044590400
1563958790471098880 0.0023304438218500 0.0005672098486680 0.0002588412608020 0.0019106355030100 0.0000707147846697 -0.0003551637346390
1563958790487553024 0.0022776448167900 0.0006412893417290 -0.0000484387783217 0.0025846632197500 -0.0003445178153920 -0.0002071583730870
1563958790503737600 0.0021202566567800 0.0007815323770050 -0.0003730565076690 0.0026646442711400 -0.0010711845243300 -0.0008951149648060
1563958790520578048 0.0020421603694600 0.0008633246179670 -0.0006083850748840 0.0032581775449200 -0.0003957317094320 0.0002728000981730
1563958790535359488 0.0019919185433500 0.0008504821453240 -0.0008341083885170 0.0019521511858300 -0.0000185360840987 -0.0005963254952800
1563958790551336704 0.0019382326863700 0.0008570640929970 -0.0008788040722720 0.0036882464774000 -0.0001014549052340 -0.0016225656727300
1563958790567531776 0.0019116093171800 0.0008981955470520 -0.0009319904493170 0.0021344495471600 0.0013192241312900 -0.0007753738318570
1563958790582959360 0.0019362731836700 0.0010855031432600 -0.0009618218755350 0.0034744499716900 0.0006185335805640 -0.0020527194719800
1563958790600196864 0.0017553911311600 0.0009180722991000 -0.0008699353784320 0.0016086767427600 -0.0001445866946600 -0.0002050773036900
1563958790616228096 0.0017100938130200 0.0009523071930740 -0.0008718259050510 0.0012928810901900 0.0014238583389700 -0.0016892933053900
1563958790631076864 0.0017068909946800 0.0009664173121560 -0.0008170533692460 0.0028286310844100 0.0014823428355200 -0.0026768723037100
1563958790646821376 0.0013509513810300 0.0009541065082890 -0.0008565404568800 0.0009735478088260 0.0023868298158000 -0.0002705524675550
1563958790662838528 0.0011905594728900 0.0010445151710900 -0.0008467598818240 0.0003392339858690 0.0000209541867662 -0.0004407961969260
1563958790679242240 0.0011631058296200 0.0011438258225100 -0.0008048720192160 0.0006580934859810 0.0013056653551800 -0.0003827977634500
1563958790695287808 0.0009528825175950 0.0010656558442900 -0.0007021787459960 -0.0004354409174990 0.0010673118522400 -0.0008560398709960
1563958790712440064 0.0008674331475050 0.0010901596397200 -0.0005826308624820 0.0012955825077400 0.0007932159351180 0.0002256127045260
1563958790726748416 0.0007520730723630 0.0010079179192000 -0.0003721232351380 -0.0016970443539300 0.0022277247626300 -0.0000193098385353
1563958790742835200 0.0006639324128630 0.0009175668237730 -0.0002548538614060 -0.0013337702257600 0.0005031148321000 0.0005944901495240
1563958790759736832 0.0004850098921450 0.0009184264345090 -0.0000344793152181 -0.0017800329951600 0.0020813245791900 0.0018621811177600
1563958790775856128 0.0004236696986480 0.0009924229234460 0.0001466025278210 -0.0018294693436500 0.0025796899572000 0.0006194374873300
1563958790790902528 0.0004263604641890 0.0010171381291000 0.0003778489190150 -0.0020573628135000 0.0024190268013600 0.0015928318025500
1563958790806862080 0.0004188409948260 0.0011162814917000 0.0006306123686950 -0.0023861047811800 0.0028765420429400 0.0032474417239400
1563958790823745024 0.0004124045663050 0.0011576245306100 0.0008797466289250 -0.0028248343151100 0.0016685490263600 0.0027158362790900
1563958790839581440 0.0004144937556700 0.0011133945081400 0.0011689116945500 -0.0009442133014090 0.0006293654441830 0.0022510043345400
1563958790855085824 0.0003122864582110 0.0011532050557400 0.0013189119054000 -0.0015550534008100 -0.0003489397931840 0.0001632264029470
1563958790871438336 0.0002614211407490 0.0011419783113500 0.0015146825462600 -0.0011269426904600 -0.0028166666161300 0.0002002353139690
1563958790887271936 0.0004039214982190 0.0012220446951700 0.0015719555085500 -0.0011119868140700 -0.0006375917000700 0.0000584174813412
1563958790903846400 0.0004569013544820 0.0012474640971000 0.0016952581936500 -0.0000481015667901 -0.0010442506754800 -0.0002643910411280
1563958790918951936 0.0005527288303710 0.0013317657867400 0.0017376537434800 -0.0014950633049000 0.0002844184637070 0.0005046426085760
1563958790934859008 0.0006989179528320 0.0013489224948000 0.0018371065380100 -0.0004035072051920 -0.0013372180983400 -0.0010877195745700
1563958790952012032 0.0007566287531520 0.0013192198239300 0.0018848897889300 0.0000673782196827 -0.0025600630324300 -0.0015766981523500
1563958790967381760 0.0008595989784230 0.0013883169740400 0.0019495087908600 0.0020644608885000 -0.0030224323272700 -0.0010874286526800
1563958790984116224 0.0009493740508330 0.0013753694947800 0.0020822910592000 0.0022571224253600 -0.0023210914805500 -0.0020943512208800
1563958790999089408 0.0010466758394600 0.0012038226705000 0.0022508231923000 0.0023498821537900 -0.0015062006423200 -0.0006257501663640
1563958791015043072 0.0011302138445900 0.0009644840029070 0.0024639493785800 0.0018433585064500 -0.0000086268410087 -0.0005934664513920
1563958791031365376 0.0013404650380800 0.0008944961591620 0.0025450962130000 0.0013088394189300 0.0006043555913490 0.0003315122448840
1563958791048757760 0.0014674578560500 0.0008557331166230 0.0027764942497000 0.0020126460585700 0.0005060428520660 -0.0006652268348260
1563958791066561024 0.0014865018893000 0.0009071102249440 0.0031299402471600 0.0011728594545300 -0.0002828654542100 -0.0021598185412600
1563958791079097856 0.0016049185069300 0.0008941804408100 0.0033324838150300 -0.0000344955478795 -0.0015813601203300 -0.0009101895848290
1563958791095071488 0.0017722996417400 0.0008198891882780 0.0035058364737800 -0.0004577084910120 -0.0009373459033670 -0.0000506247961312
1563958791112078080 0.0018117041327100 0.0007743571186440 0.0036171013489400 0.0017451596213500 -0.0022224909625900 -0.0015373469796000
1563958791127021568 0.0020429971627900 0.0006188685656530 0.0038372764829500 -0.0001671085483390 -0.0016001063631800 -0.0003252009628340
1563958791143980800 0.0020307884551600 0.0006194747984410 0.0039929221384200 0.0004716670082420 -0.0026626728940800 -0.0011059911921600
1563958791158903040 0.0019845170900200 0.0005768268601970 0.0040150289423800 0.0000496171705890 -0.0036927431356200 0.0012129091192000
1563958791175230976 0.0020126521121700 0.0006198362098080 0.0042021302506300 -0.0003230909351260 -0.0021269216667900 0.0002608191571200
1563958791192508928 0.0019738313276300 0.0006297645159070 0.0042996094562100 -0.0017763751093300 -0.0013434329303000 0.0025422237813500
1563958791208024064 0.0018578041344900 0.0007184976129790 0.0044157919473900 -0.0035908417776200 -0.0006762633565810 0.0007501167128790
1563958791223217664 0.0018228068947800 0.0006402537110260 0.0045262915082300 -0.0025366602931200 -0.0002575204416640 0.0007079967763270
1563958791239101440 0.0017723832279400 0.0005590392393060 0.0044921217486300 -0.0027319563087100 -0.0012636270839700 -0.0003268233267590
1563958791255787776 0.0017580598359900 0.0004364285850900 0.0045095630921400 -0.0037725183647100 -0.0000973337737378 0.0017238729633400
1563958791271565568 0.0016994531033600 0.0003810690250250 0.0044525512494100 -0.0021303643006800 -0.0006984960054980 -0.0006001452566120
1563958791287177472 0.0017665042541900 0.0002935418160630 0.0043796091340500 -0.0020191895309800 -0.0016649587778400 -0.0005812888266520
1563958791302890752 0.0016970840515600 0.0003335626679470 0.0044342270121000 -0.0003740684478540 -0.0018082401948000 -0.0013299658894500
1563958791319149568 0.0014149644412100 0.0002140219439750 0.0042666075751200 -0.0012097702128800 -0.0014293432468500 -0.0012668875278900
1563958791334892032 0.0013554935576400 0.0001242240687130 0.0041281860321800 0.0001307622587770 -0.0008893995545800 -0.0034943891223500
1563958791351066368 0.0013620965182800 0.0000649679859634 0.0038350771646900 -0.0005926669691690 0.0004022766661360 -0.0006073537515480
1563958791367254016 0.0013457402819800 0.0000219268513320 0.0035702495370100 0.0013865635264700 0.0007014561560940 -0.0022999939974400
1563958791382765056 0.0013093115994700 0.0000462381067337 0.0032438521739100 0.0015213195001700 0.0009214391466230 -0.0034924207720900
1563958791399147008 0.0012767772423100 0.0000298785380437 0.0028551188297600 0.0019162907265100 0.0001401058980260 -0.0059716370888100
1563958791415633920 0.0011342372745300 0.0000827699695947 0.0024343174882200 0.0009581699850970 -0.0004504190874290 -0.0046563530340800
1563958791431793920 0.0010561163071500 0.0000703038385836 0.0020980080589700 0.0022450333926800 -0.0019207939039900 -0.0061677643097900
1563958791447305472 0.0011236125137700 0.0000866949121701 0.0017244141781700 0.0010309225181100 -0.0020982581190800 -0.0044940928928600
1563958791463478784 0.0010723789455400 0.0002557351836000 0.0013961137738100 0.0027123531326700 -0.0007250714697880 -0.0037664801348000
1563958791481678336 0.0009267707355320 0.0003974945866500 0.0010556412162300 0.0007214756915350 -0.0012222453951800 -0.0026936919894100
1563958791495134720 0.0010485260281700 0.0003077875880990 0.0008016406791280 0.0027700706850700 -0.0004547819844450 -0.0031392134260400
1563958791511273728 0.0011348860571200 0.0003703544207380 0.0005858669755980 0.0019094387535000 -0.0019621970132000 -0.0048342631198500
1563958791527183616 0.0010376084828700 0.0002181877789550 0.0004330925876270 0.0027361097745600 -0.0018839894328300 -0.0058591682463900
1563958791543010816 0.0011486565927000 0.0000777979148552 0.0002529609773770 0.0005223648622630 -0.0008941189735200 -0.0039831274189100
1563958791558934016 0.0011453413171700 0.0001385068608220 0.0000772530838731 -0.0006823010044170 0.0013512733858100 -0.0040388028137400
1563958791574912000 0.0010603147093200 0.0001467597758160 -0.0001094563122020 -0.0002615297271400 0.0009970061946660 -0.0030613855924500
1563958791591167232 0.0009542318293820 0.0002281924098500 -0.0002314873272550 -0.0007879044278520 0.0020464183762700 -0.0032753290142900
1563958791606864128 0.0010458305478100 0.0003468815120870 -0.0003262769023420 -0.0019911318086100 -0.0003629665006880 -0.0024245141539700
1563958791623243776 0.0009823017753660 0.0005274721770550 -0.0003268832224420 -0.0008591877995060 -0.0005896023940290 -0.0008538285037500
1563958791639777792 0.0008455395000060 0.0004921147483400 -0.0003468158247410 -0.0022661171387900 0.0001584894343980 -0.0022734217345700
1563958791654804736 0.0009470043587500 0.0005211337120270 -0.0002580817090350 -0.0018470591167000 -0.0006164500373420 -0.0006577617605220
1563958791670957824 0.0008936194935810 0.0005310513661240 -0.0002713820431380 -0.0005929882754570 -0.0007059510680850 -0.0018605163786600
1563958791686805504 0.0007454468868670 0.0005486403824760 -0.0002793988678600 -0.0005057092057540 -0.0005894710193390 -0.0013236553641000
1563958791702781440 0.0007449016557080 0.0005990962963550 -0.0002303369401490 -0.0018822207348400 0.0010518275667000 0.0017040707171000
1563958791720059648 0.0006559126777570 0.0006860021967440 -0.0001997102663150 -0.0022031618282200 0.0010737378615900 0.0031190528534400
1563958791734883328 0.0005290007102300 0.0007468602852900 -0.0001460222556490 -0.0030827489681500 0.0011876153294000 0.0038733931724000
1563958791751190272 0.0004243483708710 0.0007301986915990 -0.0000097602805908 -0.0023978468962000 0.0007062582299110 0.0038793731946500
1563958791767553536 0.0003236729535270 0.0008140787249430 0.0001559488009660 -0.0009554397547620 0.0011256934376400 0.0030147191137100
1563958791782988032 0.0002177682763430 0.0007710414938630 0.0003781711857300 0.0011030749883500 0.0013019494945200 0.0023442942183500
1563958791798858752 0.0001035207751560 0.0006949231028560 0.0005226224311630 -0.0004036313330290 0.0023143757134700 0.0016078350599900
1563958791815239680 0.0002131042710970 0.0007519293576480 0.0006480935844590 -0.0005531390197580 0.0009580129408280 0.0017136476235500
1563958791830894848 0.0003676248888950 0.0005675850552510 0.0007121472735890 0.0000840479042381 0.0033830946777000 0.0014622426824600
1563958791847146240 0.0004571361059790 0.0006315895589070 0.0007959204376680 0.0001032942091110 0.0031228547450200 0.0021373152267200
1563958791862938624 0.0006095728604120 0.0006548566743730 0.0009223127854060 0.0004864415386690 0.0030347949359600 0.0013379214797200
1563958791879078400 0.0006207466940400 0.0006854000384920 0.0010955944890200 -0.0001147366128860 0.0028266487643100 0.0022411781828900
1563958791894694144 0.0005177423008720 0.0007731057703500 0.0012484005419500 -0.0012130716349900 0.0026922826655200 0.0025520701892700
1563958791910914304 0.0004003628855570 0.0008193334797400 0.0015561114996700 0.0000571526907152 0.0008513774955650 0.0026969918981200
1563958791927533568 0.0003584593068810 0.0008984566666190 0.0017755388980700 -0.0005256786826070 0.0006672687595710 0.0014243407640600
1563958791943045632 0.0001768854563120 0.0008274438441730 0.0020229991059800 -0.0003913954133170 -0.0005822568200530 0.0018896093824900
1563958791958825216 0.0001667507167440 0.0008649446535860 0.0023437724448700 -0.0010975087061500 -0.0013580550439700 0.0018335469067100
1563958791975303680 0.0000367508837371 0.0008973107323980 0.0026110401377100 -0.0008075368823480 -0.0006682449602520 0.0026001830119600
1563958791991016448 0.0000131782953758 0.0009321087272840 0.0028901463374500 -0.0002344833628740 0.0008323801448570 0.0009653656161390
1563958792007806208 -0.0000020543589017 0.0010345055488900 0.0031373142264800 -0.0023496828507600 0.0016045505181000 0.0008288879762400
1563958792023037952 0.0000347013919964 0.0011214205296700 0.0032917100470500 -0.0019830153323700 0.0007102472009140 -0.0005644608172590
1563958792038843392 0.0001515216863480 0.0011935771908600 0.0034479624591800 -0.0008697503362780 -0.0000987253806670 -0.0000057525585362
1563958792055241216 0.0001550286688140 0.0013020057231200 0.0035144288558500 -0.0003249556757510 -0.0019665001891600 -0.0009646639227870
1563958792071212800 0.0003809407935480 0.0013723776210100 0.0036767518613500 -0.0002448484010530 -0.0025094954762600 0.0004295982071200
1563958792088281088 0.0004377808072600 0.0013148924335800 0.0038292028475600 -0.0018275553593400 -0.0024893120862500 -0.0000851215590956
1563958792102946304 0.0003528333327270 0.0011700739851200 0.0038103892002300 -0.0001884483790490 -0.0025035245344000 0.0012495935661700
1563958792119396352 0.0005205137422310 0.0011424927506600 0.0040654568001600 0.0005347295664250 -0.0022684342693500 0.0001126488350560
1563958792135702016 0.0004056260513610 0.0010292377555700 0.0041212313808500 0.0000057438082877 -0.0009527544025330 0.0010043379152200
1563958792152480256 0.0004420262703210 0.0009779745014380 0.0040842215530600 0.0002801486116370 -0.0006871588993820 0.0002443880075590
1563958792167190528 0.0005399333895180 0.0009707449353300 0.0039462703280200 -0.0011391286971000 -0.0005173646495680 0.0019387699430800
1563958792183784704 0.0005828667781320 0.0009337427327410 0.0038929802831300 0.0001737296115610 -0.0018184462096500 -0.0019340949365900
1563958792198764544 0.0006998406024650 0.0009109283564610 0.0038471289444700 0.0001650315098230 -0.0007072985172270 -0.0009487302158960
1563958792216501248 0.0006262857932600 0.0009592351852920 0.0037042254116400 -0.0018548035295700 0.0007819753373040 0.0001056794790200
1563958792232290560 0.0008156249532480 0.0010147674474900 0.0035428996197900 -0.0024890457280000 0.0006107946392150 -0.0004198152746540
1563958792247607040 0.0007424944778900 0.0011266045039500 0.0033427278976900 -0.0030705155804800 0.0005251979455350 -0.0005332268192430
1563958792262883584 0.0007008521351960 0.0011531331110700 0.0031342597212600 -0.0042762565426500 0.0016884027281800 0.0003752483171410
1563958792279538688 0.0006589459953830 0.0011505548609400 0.0030531575903300 -0.0037225401029000 0.0018264820100700 0.0005127971526240
1563958792294953472 0.0005947532481510 0.0010683725122400 0.0029181763529800 -0.0033203803468500 0.0007985605625440 0.0007887529209260
1563958792310941184 0.0005584165337500 0.0009115944849330 0.0028286357410300 -0.0010549592552700 0.0006429784698410 -0.0001634252257650
1563958792327155712 0.0006302379770200 0.0010335098486400 0.0025988202542100 -0.0029220320284400 0.0004383393097670 0.0003719140077010
1563958792343395072 0.0005579123971980 0.0011667774524500 0.0024225385859600 -0.0014203190803500 0.0011138652917000 -0.0012271067826100
1563958792359567872 0.0004213982902000 0.0013171883765600 0.0023258856963400 -0.0033512606751200 -0.0005549789639190 -0.0009828589390960
1563958792375303936 0.0004379191377670 0.0015097027644500 0.0021623857319400 -0.0024591323453900 0.0012691437732400 0.0002275376173200
1563958792391296512 0.0004284502065270 0.0016256413655400 0.0020169178023900 -0.0014471292961400 0.0009749128948900 0.0001176143123300
1563958792407023616 0.0004324905748940 0.0018272954039300 0.0017907037399700 -0.0007473682053390 -0.0002112473885060 -0.0026643215678600
1563958792422754048 0.0005705052171830 0.0020263355691000 0.0016060774214600 -0.0012408558977800 -0.0000755481451051 -0.0014805230312000
1563958792438940160 0.0005443957052190 0.0022127183619900 0.0015594622818800 -0.0003371519851500 -0.0014366101240700 -0.0020785692613600
1563958792455190272 0.0003943513438570 0.0023024857509900 0.0015661383513400 -0.0002085555752270 -0.0020117321983000 -0.0030959546566000
1563958792472282880 0.0004215901135470 0.0023975933436300 0.0015899059362700 0.0011234724661300 -0.0024421610869500 -0.0045636370778100
1563958792487174656 0.0004270243516660 0.0023179959971500 0.0016428938834000 -0.0010603081900600 -0.0008230910752900 -0.0023924899287500
1563958792502836736 0.0003046971978620 0.0023807978723200 0.0015882274601600 -0.0000009356008377 -0.0010900625493400 -0.0032496759668000
1563958792519651840 0.0002684748324100 0.0021946879569400 0.0015684885438500 0.0003433613455850 0.0002128338674080 -0.0026106094010200
1563958792535003392 0.0002135910181100 0.0021427976898800 0.0015598302707100 0.0008637438295410 -0.0005503373686220 -0.0032101713586600
1563958792551035392 0.0001225481537400 0.0020813297014700 0.0016703800065400 0.0015037697739900 0.0005516738747250 -0.0023103861603900
1563958792566965248 0.0002759966300800 0.0020944590214600 0.0017364502418800 0.0026403442025200 0.0004723787715190 -0.0030492721125500
1563958792582880512 0.0002038345701290 0.0020412455778600 0.0018838011892500 0.0017983372090400 0.0010002892231600 -0.0004358914738990
1563958792598829312 0.0000507101249241 0.0020272079855200 0.0019611066673000 0.0013614826602900 0.0005511109484360 -0.0026533417403700
1563958792614868992 0.0000283463341475 0.0019795349799100 0.0019466303056100 -0.0003027554485020 0.0012507730862100 -0.0019055468728800
1563958792631895296 -0.0000333908647008 0.0019073667936000 0.0020360054913900 -0.0010651074117000 -0.0000932736656978 -0.0013527938863300
1563958792647031040 -0.0000372534086637 0.0018557615112500 0.0021336930804000 -0.0019741451833400 -0.0004938651691190 -0.0005715893930760
1563958792663585024 -0.0002493056235830 0.0018497395794800 0.0021248913835700 -0.0009378014947290 -0.0004224729200360 0.0021508675999900
1563958792678928128 -0.0003366921737320 0.0018692277371900 0.0021990898530900 -0.0026410645805300 -0.0002342718944420 0.0017710549291200
1563958792695191552 -0.0004246286698620 0.0018842634744900 0.0021033259108700 -0.0028301645070300 -0.0017329817637800 0.0039373948238800
1563958792712332032 -0.0004450568521860 0.0018588139209900 0.0020803839433900 -0.0014812122099100 -0.0008713680435900 0.0027246505487700
1563958792726995968 -0.0004680402635130 0.0018606728408500 0.0019528891425600 -0.0010903963120700 -0.0011938973330000 0.0025354458484800
1563958792743083776 -0.0004145041748420 0.0017999024130400 0.0019045937806400 -0.0004628144670280 -0.0019238110398900 0.0009152232669290
1563958792758826240 -0.0004513763124120 0.0016637066146400 0.0018550020176900 -0.0013030518312000 -0.0014773982111400 0.0010122595122100
1563958792774846464 -0.0005280823097560 0.0017615758115400 0.0018471626099200 -0.0003245882689950 -0.0026882521342500 -0.0005544656305570
1563958792791783680 -0.0004584579437510 0.0017073557246500 0.0017194817774000 0.0005854290211570 -0.0016960394568700 0.0002892827615140
1563958792806909696 -0.0003294186317360 0.0015970884123800 0.0016399592859700 0.0005986485048200 -0.0012404505396300 0.0001856767048590
1563958792824023552 -0.0003333651402500 0.0015959036536500 0.0016022637719300 -0.0004765775811390 0.0006570497644130 0.0002533238730390
1563958792841704192 -0.0002992181980520 0.0017611855873800 0.0015827133320300 -0.0007917589973660 0.0027414157521000 0.0017094404902300
1563958792854878720 -0.0003509678645060 0.0018529914086700 0.0014805544633400 0.0003052092506550 0.0017014396144100 0.0022052116692100
1563958792871663360 -0.0004978752695020 0.0018917723791700 0.0015229097334700 0.0005702179041690 0.0001716441183820 0.0012010267237200
1563958792887262208 -0.0004306776390880 0.0019513203296800 0.0014005731791300 -0.0000969319808064 0.0008679895545360 0.0023155647795600
1563958792902811648 -0.0003737821534740 0.0017921318067200 0.0013806778006300 -0.0022083215881100 0.0029309142846600 0.0027937362901900
1563958792918969344 -0.0003592327120710 0.0015883928863300 0.0012538396986200 -0.0007172726327550 0.0026353211142100 0.0037459293380400
1563958792934952704 -0.0002131828514390 0.0014461023965900 0.0011035517090900 -0.0010745221516100 0.0025501959025900 0.0033891205675900
1563958792951446016 0.0000263161236944 0.0013385085621800 0.0009319046512250 0.0002639104786790 0.0026478143408900 0.0023461682722000
1563958792966835456 0.0001861739146990 0.0012912630336400 0.0007168640149760 -0.0001453513104930 0.0029926793649800 0.0038785664364700
1563958792983056128 0.0002858511579690 0.0013252329081300 0.0005754957091990 -0.0004664352163670 0.0021153744310100 0.0038526656571800
1563958792999390464 0.0005215369164940 0.0013310665963200 0.0005259360768830 0.0001261981960850 0.0038898235652600 0.0010117186466200
1563958793014838784 0.0005904913414270 0.0013752960367100 0.0004968632129020 0.0001316834823230 0.0034918345045300 0.0010725901229300
1563958793031620352 0.0005599888972940 0.0013192106271200 0.0004546718846540 -0.0013675997033700 0.0035042481031300 0.0016501997597500
1563958793046784000 0.0006432114169000 0.0013727924088000 0.0004775411507580 -0.0010435563745000 0.0029094740748400 0.0006240611546670
1563958793063151104 0.0005957401590420 0.0014011334860700 0.0005017130170020 0.0011100585106800 0.0018013949738800 -0.0005515449447560
1563958793078779392 0.0005039435927760 0.0014306028606400 0.0006948797963560 -0.0000283874396700 0.0009507613140160 0.0001319790608250
1563958793095191808 0.0005342682125050 0.0014960122061900 0.0008258415036830 -0.0018804086139400 0.0021330006420600 0.0003672899329100
1563958793112961024 0.0004961803206240 0.0014813748421100 0.0009235960897060 0.0005976439570080 0.0014958711108200 0.0010676878737300
1563958793127673600 0.0004044262168460 0.0014771353453400 0.0009781392291190 -0.0005020540556870 0.0014934189384800 0.0014648507349200
1563958793143023104 0.0003871930530290 0.0013704058947000 0.0010155490599600 -0.0002217516012020 0.0023862684611200 0.0020369351841500
1563958793159154176 0.0003828085027640 0.0012628810945900 0.0011080397525800 -0.0000998811447062 0.0023591038771000 0.0001198854588440
1563958793175958272 0.0003713032929230 0.0011974548688200 0.0012260425137400 -0.0011523240245900 0.0010509483981900 0.0020223096944400
1563958793191931904 0.0004252969520170 0.0011068109888600 0.0013557707425200 0.0001561109820610 0.0013468620600200 0.0014921826077600
1563958793206887168 0.0005282868514770 0.0010530776344200 0.0014508478343500 0.0005062763229940 0.0018462789012100 0.0000636607146589
1563958793223000064 0.0006471880478780 0.0009650052525100 0.0014487208100000 -0.0007293947273870 0.0024579330347500 0.0001078483765010
1563958793240089344 0.0007413927232850 0.0009073151741180 0.0015271275769900 0.0012546824291300 0.0022916779853400 -0.0015312589239300
1563958793255934464 0.0008442005491820 0.0007859769975770 0.0016600994858900 0.0003896773851010 0.0030357157811500 -0.0007020420744080
1563958793271290624 0.0010390473762500 0.0007292605587280 0.0017923834966500 -0.0002553706581240 0.0037410403601800 -0.0008160211145880
1563958793288080896 0.0011307431850600 0.0006761175463910 0.0018028903286900 0.0001370184472760 0.0053443950600900 -0.0006846775067970
1563958793302796032 0.0012768747983500 0.0006676466437060 0.0019878712482800 -0.0001590116880830 0.0042015458457200 0.0001345113560090
1563958793319929344 0.0014359684428200 0.0008050043252300 0.0020050646271600 0.0012204617960400 0.0036004984285700 -0.0016126683913200
1563958793334952704 0.0014823515666600 0.0008984733140100 0.0021077129058500 0.0030841806437800 0.0022031124681200 -0.0029064770788000
1563958793350998016 0.0014379528584000 0.0010312176309500 0.0021485772449500 0.0014700329629700 0.0008446010760960 -0.0045810579322300
1563958793368484864 0.0016312202205900 0.0012152397539500 0.0021998269949100 -0.0003827251493930 0.0005423419061120 -0.0029646300245100
1563958793383092992 0.0016493386356200 0.0013481484493200 0.0024010823108300 0.0004812626866620 0.0006887816125530 -0.0026180860586500
1563958793398876416 0.0014932302292400 0.0015754220075900 0.0026248975191300 0.0020258864387900 0.0013838713057300 -0.0024888906627900
1563958793415862016 0.0014202910242600 0.0018173176795200 0.0027932280208900 0.0008590157376600 0.0019304372835900 -0.0021100775338700
1563958793431599360 0.0014627203345300 0.0020787420216900 0.0029524550773200 0.0014714285498500 0.0021143229678300 -0.0007088363636290
1563958793446869248 0.0014197669224800 0.0023687318898700 0.0031834237743200 0.0015469983918600 0.0007574840565210 -0.0025941606145400
1563958793462994688 0.0013097148621500 0.0025110701099000 0.0034450779203300 0.0008416345808660 0.0011126023018700 -0.0009655560133980
1563958793481182720 0.0012563460040800 0.0026913813781000 0.0036767944693600 0.0033201654441700 0.0003830650821330 -0.0023366494569900
1563958793495222528 0.0011083167046300 0.0027470425702600 0.0038887015543900 0.0013905725209000 0.0028090511914300 -0.0016434779390700
1563958793514541568 0.0010780228767500 0.0027264505624800 0.0040758941322600 0.0022257359232800 0.0020598014816600 -0.0037842974998100
1563958793528847872 0.0010757382260600 0.0026935485657300 0.0042877225205300 0.0019007399678200 0.0024736607447300 -0.0043566976673900
1563958793543003648 0.0009279335499740 0.0025976484175800 0.0044587878510400 0.0022278625983700 0.0038181953132200 -0.0036281042266600
1563958793559099392 0.0007527972920800 0.0024704548995900 0.0045489436015500 0.0021982444450300 0.0036997760180400 -0.0037913289852400
1563958793574990848 0.0006832919316370 0.0024458991829300 0.0045101465657400 -0.0002011729811780 0.0039435429498600 -0.0032201248686800
1563958793591208448 0.0004709270724560 0.0025392423849600 0.0043774354271600 0.0012599885230900 0.0049019167199700 -0.0037763933651100
1563958793607334400 0.0002764152886810 0.0025922053027900 0.0043127466924500 0.0050295479595700 0.0041741048917200 -0.0061025256291000
1563958793623252736 0.0001732859236650 0.0026093625929200 0.0040276721119900 0.0018886589678000 0.0050622122362300 -0.0040502417832600
1563958793638687232 0.0000774305080995 0.0025459027383500 0.0037721351254700 0.0024670204147700 0.0059076072648200 -0.0028901558835100
1563958793654741248 -0.0000793580838945 0.0026029830332800 0.0036014283541600 0.0013251327909500 0.0073734614998100 -0.0037085530348100
1563958793670868224 -0.0000967959640548 0.0024264957755800 0.0032014772296000 0.0004072115407330 0.0060922130942300 -0.0023133435752200
1563958793687886080 -0.0002893825876530 0.0022569787688600 0.0029523298144300 0.0003805047599600 0.0076407357119000 -0.0039343046955800
1563958793702995968 -0.0003547695814630 0.0021841735579100 0.0025238133966900 -0.0009215611498800 0.0087922625243700 -0.0041757500730500
1563958793719207680 -0.0003833660739470 0.0020846745465000 0.0022430387325600 -0.0019347427878500 0.0097379200160500 -0.0027609434910100
1563958793734984448 -0.0003544574137780 0.0020638748537700 0.0018860590644200 -0.0022198995575300 0.0093147428706300 -0.0026750678662200
1563958793751003136 -0.0002732104621830 0.0020061878021800 0.0015060348669100 -0.0015233682934200 0.0090736672282200 -0.0013374311383800
1563958793768281344 -0.0001368444063700 0.0018597542075400 0.0012675960315400 -0.0031676585786000 0.0089419027790400 -0.0003678015782500
1563958793783183360 -0.0000365748383047 0.0016367421485500 0.0008815132896420 -0.0029215607792100 0.0094890780746900 0.0010669582989100
1563958793798899200 0.0000955243522185 0.0015813615173100 0.0006795352674090 -0.0020215201657300 0.0071460828185100 0.0007710838690400
1563958793815854592 0.0000742050397093 0.0015291973250000 0.0004680517886300 -0.0003951584803870 0.0077472142875200 -0.0003692231839520
1563958793831007488 0.0001847116946010 0.0014187761116800 0.0003651853476190 -0.0026407833211100 0.0070560583844800 0.0019111183937600
1563958793847095808 0.0002413368056300 0.0013709524646400 0.0002009107265620 -0.0031415449921000 0.0070275692269200 0.0023167522158500
1563958793862723328 0.0004259150591680 0.0014429672155500 0.0000795122250565 -0.0021523053292200 0.0064971605315800 0.0023800833150700
1563958793878662912 0.0005370922735890 0.0015755249187400 -0.0000421139375248 -0.0018379215616700 0.0062935985624800 0.0010757149430000
1563958793895470080 0.0006486524362120 0.0016311472281800 -0.0002054046490230 -0.0018818404059900 0.0036940257996300 0.0006128906970840
1563958793910738176 0.0007550775189880 0.0016644847346500 -0.0002988952037410 -0.0013389450032300 0.0037581259384800 0.0008482418488710
1563958793927305984 0.0008779062773100 0.0016375094419300 -0.0004659353871830 -0.0013033555587800 0.0024254638701700 -0.0001320704031970
1563958793942971648 0.0010382282780500 0.0017254541162400 -0.0004706329200420 -0.0002141282602680 0.0038188092876200 -0.0011747693643000
1563958793958822144 0.0011278307065400 0.0019238829845600 -0.0005903782439420 0.0013291661161900 0.0036868948955100 -0.0013189975870800
1563958793975501312 0.0012231706641600 0.0019792609382400 -0.0006225364631970 0.0005022577242930 0.0059579513035700 -0.0002293490688320
1563958793991550464 0.0012548358645300 0.0021680747158800 -0.0006868041818960 0.0012386247981300 0.0053743077442000 0.0013084339443600
1563958794007171328 0.0012704948894700 0.0022964584641200 -0.0006681771483270 0.0012040310539300 0.0057491702027600 0.0009407980833200
1563958794023118080 0.0014511001063500 0.0024029095657200 -0.0005937750684100 -0.0006124545470810 0.0064274533651800 0.0018958819564400
1563958794039094528 0.0014885317068500 0.0024135150015400 -0.0005290952976790 -0.0018597451271500 0.0076090823859000 0.0024440642446300
1563958794055602944 0.0015924365725400 0.0024497080594300 -0.0004571628523990 -0.0026425421237900 0.0069659710861700 0.0038914775941500
1563958794070923008 0.0016329052159600 0.0023484614212100 -0.0003770122420970 -0.0026100382674500 0.0059361625462800 0.0058906087651800
1563958794086811904 0.0017505974974500 0.0023401430808000 -0.0002983386220880 -0.0027868787292400 0.0054831830784700 0.0049240523949300
1563958794103122944 0.0018528192304100 0.0024188868701500 -0.0001269975909960 -0.0027241918724000 0.0036571770906400 0.0042095514945700
1563958794119203840 0.0017520890105500 0.0024160759057800 -0.0000136567359732 -0.0027054459787900 0.0029126363806400 0.0034517531748900
1563958794136819968 0.0018699169158900 0.0024480072315800 0.0001296442933380 -0.0030150890816000 0.0037497563753300 0.0016322159208400
1563958794150832384 0.0018113863188800 0.0023909730371100 0.0002117625408570 -0.0024429305922200 0.0027171203400900 -0.0007414896390400
1563958794167369984 0.0018258828204100 0.0023194418754400 0.0004097682249270 -0.0027277772314800 0.0049811135977500 0.0013934075832400
1563958794186197248 0.0018699307693200 0.0022839957382500 0.0005784053937530 -0.0023338813334700 0.0028673331253200 0.0010447863023700
1563958794201364992 0.0019879685714800 0.0021974851843000 0.0007813161355440 -0.0017136014066600 0.0029948810115500 0.0000408077612519
1563958794215678208 0.0019093580776800 0.0021214748267100 0.0009495974518360 -0.0013302932493400 0.0035623705480200 -0.0002472180640320
1563958794231586048 0.0018157392041800 0.0021186408121100 0.0010210252367000 -0.0021606944501400 0.0040632006712300 -0.0002332712756470
1563958794246984704 0.0018308028811600 0.0020853702444600 0.0011913707712700 -0.0027362222317600 0.0058225416578400 0.0001726342306940
1563958794264311552 0.0017330290284000 0.0019960352219600 0.0013490966521200 -0.0024496256373800 0.0064296647906300 0.0012843413278500
1563958794282430208 0.0015761901158800 0.0019828707445400 0.0016301075229400 -0.0017997755203400 0.0069646639749400 0.0013594790361800
1563958794295952384 0.0015465975739100 0.0018507671775300 0.0018302127718900 -0.0017087869346100 0.0065773655660500 0.0019362950697500
1563958794310848256 0.0015634549781700 0.0018931407248600 0.0020229467190800 -0.0010978176724200 0.0055567752569900 0.0005002169637010
1563958794327000064 0.0014207575004500 0.0018104111077300 0.0022372850216900 -0.0010514089372000 0.0050269206985800 -0.0002253697603010
1563958794343443968 0.0013944606762400 0.0018092218088000 0.0024307030253100 -0.0011481218971300 0.0059651974588600 -0.0007588552543890
1563958794360762880 0.0013552779564600 0.0018614883301800 0.0025739313568900 0.0002867680741470 0.0059582670219200 -0.0009753813501450
1563958794375325184 0.0011546488385600 0.0018239149358100 0.0027713279705500 0.0014523436548200 0.0042005614377600 -0.0016764792380900
1563958794392172800 0.0011786189861600 0.0017730459803700 0.0029035757761400 0.0004954100586470 0.0043392642401200 -0.0000941376201808
1563958794407320320 0.0012591432314400 0.0017926372820500 0.0030482457950700 0.0014107421739000 0.0043696030043100 0.0001773797848730
1563958794423558912 0.0011081972625100 0.0016660075634700 0.0032638967968500 0.0015885020839100 0.0038276608102000 -0.0003169045085090
1563958794438700032 0.0011971085332300 0.0016430391697200 0.0034642701502900 0.0007782733882780 0.0048696314916000 0.0005484286812130
1563958794456504064 0.0013481137575600 0.0016089855926100 0.0037629131693400 0.0007902094512250 0.0039234105497600 0.0012472326634500
1563958794473121024 0.0013284503947900 0.0015968142543000 0.0040606837719700 0.0009425285970790 0.0062612663023200 0.0011623987229500
1563958794487798528 0.0013678721152200 0.0014634624822100 0.0041961735114500 0.0010118021164100 0.0060430821031300 0.0011884778505200
1563958794502666752 0.0015714387409400 0.0014139038976300 0.0044262958690500 -0.0000097195152193 0.0054055671207600 0.0012375985970700
1563958794519053056 0.0016269609332100 0.0013804155169100 0.0047828769311300 -0.0013249004259700 0.0047008977271600 -0.0006332222837950
1563958794534608640 0.0016210151370600 0.0014485624851700 0.0049634277820600 -0.0008207536884580 0.0045439596287900 0.0001076283515430
1563958794550821888 0.0017582844011500 0.0014140930725300 0.0051458813250100 -0.0011947078164700 0.0050564678385900 0.0005584490718320
1563958794566803200 0.0019640063401300 0.0015481574228000 0.0052215708419700 -0.0016120546497400 0.0063583436422000 0.0011932704364900
1563958794583150848 0.0019378357101200 0.0016063634539000 0.0054089543409600 -0.0014520579716200 0.0069629470817700 0.0018518881406600
1563958794598828800 0.0020589546766100 0.0015886920737100 0.0055490601807800 -0.0033889287151400 0.0058715315535700 0.0020228170324100
1563958794614823424 0.0020414213649900 0.0017012667376500 0.0055982186459000 -0.0042061409913000 0.0043415119871500 0.0005962684517730
1563958794632737024 0.0020567884203000 0.0017348398687300 0.0057573784142700 -0.0040229074657000 0.0042926101014000 0.0012713787145900
1563958794647133184 0.0020103165879800 0.0019130018772600 0.0057774586603000 -0.0045376513153300 0.0051201824098800 0.0012264249380700
1563958794662736384 0.0020146579481700 0.0020182323642100 0.0058161253109600 -0.0050869612023200 0.0062773609533900 0.0013293453957900
1563958794679911168 0.0020242133177800 0.0019799617584800 0.0057486603036500 -0.0032970262691400 0.0046475236304100 0.0007316132541750
1563958794694916352 0.0018825326114900 0.0021369184833000 0.0057845441624500 -0.0036611962132200 0.0062416759319600 0.0013214466162000
1563958794716575744 0.0018641728675000 0.0020881274249400 0.0057086641900200 -0.0054140989668700 0.0056854179129000 0.0009288962464780
1563958794726814464 0.0017973071662700 0.0020868659485100 0.0056044291704900 -0.0038763873744800 0.0059167719446100 -0.0000173457665369
1563958794742956032 0.0016781407175600 0.0019729430787300 0.0054099662229400 -0.0037159125786300 0.0058835861273100 0.0002400311641400
1563958794759001088 0.0017676041461500 0.0017974822549100 0.0052528269588900 -0.0014432864263700 0.0048407334834300 -0.0004152971669100
1563958794774757888 0.0017621910665200 0.0015567630762200 0.0049580074846700 -0.0017940212274000 0.0052761882543600 -0.0004302475426810
1563958794791431168 0.0016990334261200 0.0014801629586100 0.0045706322416700 -0.0011700295144700 0.0046932646073400 0.0002734078152570
1563958794807087616 0.0017338473117000 0.0014588593039700 0.0042743366211700 -0.0003771508345380 0.0052698114886900 0.0020819352939700
1563958794822809856 0.0018441721331300 0.0013992970343700 0.0039084698073600 -0.0008724299259480 0.0068211490288400 -0.0007937244372440
1563958794842850048 0.0018066025804700 0.0012522189645100 0.0036529144272200 -0.0020308569073700 0.0052230544388300 -0.0005236704600970
1563958794854774784 0.0016797834541600 0.0010581790702400 0.0033807093277600 -0.0040144412778300 0.0051345112733500 0.0010444425279300
1563958794870912000 0.0017224284820300 0.0008955169469120 0.0030317977070800 -0.0052127321250700 0.0027918464038500 0.0003479006118140
1563958794886962432 0.0017315878067200 0.0008027949370440 0.0027780765667600 -0.0035504784900700 0.0035404169466300 0.0009443394956180
1563958794902828032 0.0016231533372800 0.0007725748000670 0.0024531581439100 -0.0033161165192700 0.0035767464432900 0.0019181940006100
1563958794918839296 0.0015384049620500 0.0007646199665030 0.0022195479832600 -0.0025981874205200 0.0047440128400900 0.0023890456650400
1563958794934893056 0.0013179914094500 0.0007984924013730 0.0019403594778900 -0.0028240478131900 0.0037219594232700 0.0023217764683100
1563958794950839808 0.0011711213737700 0.0006810837076050 0.0017757866298800 -0.0021395534277000 0.0033699856139700 0.0010880971094600
1563958794968473856 0.0011742450296900 0.0006775758811270 0.0015085146296800 -0.0016791499219800 0.0031518137548100 0.0003066561184820
1563958794983022080 0.0011610222281900 0.0004952634335500 0.0015100812306600 -0.0025707965251100 0.0048644496128000 0.0000574437726755
1563958794998891264 0.0010779234580700 0.0004059736675120 0.0013165201526100 -0.0007522259838880 0.0048857973888500 -0.0002177396963820
1563958795014600960 0.0009386108140460 0.0002838327782230 0.0013749881181900 -0.0007995431078600 0.0047250129282500 -0.0005820571677760
1563958795030931200 0.0009246671688740 0.0002555871906220 0.0013842226471800 -0.0009975627763200 0.0053821932524400 0.0004687156761070
1563958795047372800 0.0007392653496940 0.0003173775912730 0.0013471837155500 0.0001898841001090 0.0047827563248600 -0.0000620698847342
1563958795062690816 0.0006737969815730 0.0004763923061550 0.0012404234148600 -0.0007939261849970 0.0044991085305800 -0.0003813964431170
1563958795080209152 0.0004998647491450 0.0004026156093460 0.0011552312644200 -0.0022440301254400 0.0070629268884700 0.0024068490602100
1563958795094750720 0.0003630156861620 0.0004251757927700 0.0010350508382500 -0.0003897989809050 0.0052360482513900 -0.0004608154122250
1563958795110736128 0.0002100940473610 0.0004192501946820 0.0010043554939300 -0.0000034723198041 0.0067051243968300 -0.0025307543110100
1563958795128012288 0.0001433363213440 0.0005680202739310 0.0010090166470000 -0.0011923443526000 0.0053815916180600 -0.0007648406317460
1563958795143319040 -0.0000362802384188 0.0004956977791150 0.0010271508945200 0.0005734506994490 0.0037264260463400 -0.0023733999114500
1563958795158856448 -0.0002252109552500 0.0004368069930930 0.0010328500066000 0.0004462490032890 0.0037438292056300 -0.0023730569519100
1563958795174887168 -0.0003045365156140 0.0003113677958030 0.0010836530709600 -0.0005638191360050 0.0039074816741000 -0.0018449469935100
1563958795190845952 -0.0003661497321450 0.0003372379287610 0.0011170369107300 0.0001510680885990 0.0017513507045800 -0.0042450660839700
1563958795207932416 -0.0004011109413110 0.0003354723739900 0.0012677852064400 0.0003400432178750 0.0013520373031500 -0.0044085648842200
1563958795223252736 -0.0004163036064710 0.0003938439476770 0.0013530817814200 -0.0002141150180250 0.0027890685014400 -0.0030685130041100
1563958795239544320 -0.0004470762505660 0.0003650399157780 0.0014892875915400 0.0004313777026250 0.0023946277797200 -0.0021444309968500
1563958795256531200 -0.0005783722735940 0.0002699831093200 0.0016705819871300 -0.0021953117102400 0.0038893739692900 -0.0008023512782530
1563958795271052544 -0.0005313834408300 0.0002751236315820 0.0017581825377400 -0.0037082394119400 0.0030013790819800 0.0009705423144620
1563958795287712768 -0.0005046582082290 0.0004451912536750 0.0018839024705800 -0.0019032894633700 0.0025777383707500 0.0000500044407090
1563958795303196416 -0.0004847302334380 0.0005717774038200 0.0020570564083800 -0.0013550682924700 0.0011702673509700 0.0000084331040853
1563958795318733056 -0.0004642168933060 0.0005918986862530 0.0020993715152100 -0.0017388485139200 0.0023352112621100 0.0000979264732450
1563958795335858944 -0.0004231945786160 0.0005585444741880 0.0022302856668800 -0.0016845045611300 0.0013471386628200 -0.0010309361387000
1563958795351681792 -0.0004822591727130 0.0004886412061750 0.0022773558739600 -0.0040406710468200 0.0027809622697500 0.0000198593479581
1563958795368861440 -0.0005823014653290 0.0002985350729430 0.0023477489594400 -0.0044400547631100 0.0018164122011500 -0.0000590721174376
1563958795383105792 -0.0005107505712660 0.0001761256571630 0.0025373867247300 -0.0023797757457900 0.0017131270142300 -0.0007233979995360
1563958795398963200 -0.0004985003033650 0.0001409281248930 0.0026731269899800 -0.0045465012081000 0.0014919429086100 -0.0014910423196900
1563958795416044032 -0.0005808896967210 0.0000972070774878 0.0028447771910600 -0.0037912731058900 0.0018005107995100 -0.0011095305671900
1563958795430744576 -0.0006446055485870 0.0001788843801480 0.0029184427112300 -0.0026636803522700 0.0036631857510700 -0.0018187121022500
1563958795447234816 -0.0006677896599290 0.0001461740030210 0.0029014383908400 -0.0012943790061400 0.0018278774805400 -0.0005314884474500
1563958795462873088 -0.0007367487996820 0.0000241599045694 0.0030029406771100 -0.0019696305971600 0.0024540373124200 0.0009288942092100
1563958795478809856 -0.0007919270428830 0.0000370445850422 0.0030506902840000 -0.0022926898673200 0.0040456997230600 -0.0012337351217900
1563958795495186432 -0.0007961716037240 0.0000029087682378 0.0030586922075600 -0.0034537133760800 0.0024801683612200 0.0001226085441890
1563958795510858496 -0.0008518089889550 0.0001424157962900 0.0030605453066500 -0.0019336559344100 0.0030622284393800 0.0004750468942800
1563958795526736384 -0.0010051457211400 0.0002274624712300 0.0029387227259600 -0.0022970088757600 0.0017392861191200 -0.0005974305095150
1563958795542628096 -0.0009989718673750 0.0003573840658650 0.0029586288146700 -0.0014234359841800 0.0004087786655870 -0.0000111483423098
1563958795559154944 -0.0010541304945900 0.0004294312966520 0.0029554944485400 -0.0010126831475600 0.0006631584255960 0.0003870393848050
1563958795575401472 -0.0010882351780300 0.0005337877082640 0.0028712975326900 -0.0014032017206800 0.0001662701979510 -0.0010817410657200
1563958795590744832 -0.0010236408561500 0.0004879719053860 0.0028864908963400 -0.0031438171863600 0.0020235208794500 0.0005582157755270
1563958795606735616 -0.0010855727596200 0.0005245024804030 0.0028668097220400 -0.0034131982829400 0.0011124059092300 0.0021695764735300
1563958795624280320 -0.0011428717989500 0.0004833740240430 0.0028499634936500 -0.0022733465302700 0.0016683335416000 0.0020748733077200
1563958795638902528 -0.0010322191519700 0.0007141697569750 0.0028829611837900 -0.0030839424580300 0.0022253892384500 0.0003991692792620
1563958795655273472 -0.0009476164123040 0.0008607259369460 0.0028195590712100 -0.0019869154784800 0.0002225311181970 -0.0011246169451600
1563958795670794752 -0.0009912111563610 0.0010261744028000 0.0027840994298500 -0.0035234224051200 0.0023916249629100 0.0009812370408330
1563958795687311360 -0.0009447022457610 0.0012043894967100 0.0026958845555800 -0.0031555686146000 0.0006622596411030 -0.0008705094223840
1563958795703396096 -0.0009045961196530 0.0014833557652300 0.0025324816815600 -0.0022287147585300 0.0018669763812800 0.0007792601245460
1563958795718778624 -0.0008828369318510 0.0018493585521400 0.0023914992343600 -0.0027682632207900 0.0027490754146100 0.0012378625106100
1563958795737059840 -0.0010265304008500 0.0021809409372500 0.0021975438576200 -0.0026863731909500 0.0041037858463800 0.0011326969834000
1563958795750690304 -0.0011034318013100 0.0023663444444500 0.0021020262502100 -0.0040743597783100 0.0040170839056400 0.0018255801405800
1563958795767409408 -0.0014073754428000 0.0023476723581600 0.0021134570706600 -0.0032482328824700 0.0050852005370000 0.0029896851629000
1563958795783317504 -0.0015492818784000 0.0021384845022100 0.0020363645162400 -0.0035700942389700 0.0062058279290800 0.0024528275243900
1563958795799061760 -0.0016362876631300 0.0020750421099400 0.0019825426861600 -0.0031094471924000 0.0069100898690500 0.0027639935724400
1563958795814706688 -0.0017257669242100 0.0019705751910800 0.0017618911806500 -0.0034577546175600 0.0035164516884800 0.0024317870847900
1563958795830867456 -0.0017584275919900 0.0018226184183700 0.0016597225330800 -0.0023190048523200 0.0034642736427500 -0.0014581470750300
1563958795846842624 -0.0018113426631300 0.0017325192457100 0.0014534937217800 -0.0023737647570700 0.0033023136202200 -0.0018227022374000
1563958795868767744 -0.0018492487724900 0.0016677073435900 0.0012976005673400 -0.0018954493571100 0.0033638505265100 0.0002537647378630
1563958795878866176 -0.0020462705288100 0.0014098917599800 0.0011516240192600 -0.0024040450807700 0.0027307127602400 -0.0010498987976500
1563958795897755392 -0.0021835861261900 0.0013100490905300 0.0010519205825400 -0.0016159084625500 0.0054316371679300 0.0017799097113300
1563958795910941696 -0.0022279559634600 0.0011516566155500 0.0009751034667720 -0.0026753586716900 0.0052958847954900 0.0007855859003030
1563958795928174336 -0.0022442783229100 0.0009481096640230 0.0009788196766750 -0.0008720597252250 0.0040108696557600 -0.0005495822988450
1563958795943266816 -0.0023347875103400 0.0008469259482810 0.0009556594304740 -0.0014094688231100 0.0043319971300700 0.0010836170986300
1563958795959273728 -0.0021350921597300 0.0008449603919870 0.0007447645184580 -0.0016460376791700 0.0051227468065900 0.0014499835670000
1563958795974644736 -0.0020199413411300 0.0008896862855180 0.0006705092964690 0.0003470262454360 0.0023994331713800 -0.0016088718548400
1563958795991991040 -0.0021393352653800 0.0008244047057810 0.0005286940140650 0.0007396873552350 0.0049725850112700 -0.0003103670023850
1563958796007146752 -0.0020538701210200 0.0007296465919350 0.0005509362090380 -0.0023181340657200 0.0041739805601500 0.0009996513836090
1563958796026446848 -0.0019770902581500 0.0008086847374220 0.0005138653796170 -0.0026931858155900 0.0032046758569800 0.0002751874562820
1563958796038914816 -0.0020100872498000 0.0007959877839310 0.0005102323484610 -0.0043697017245000 0.0042219129391000 0.0011569084599600
1563958796054693120 -0.0018578995950500 0.0009791709017010 0.0004312236269470 -0.0043195197358700 0.0042341081425500 0.0011642911704300
